"","treatment","stage","session","period","subject","time","action","choice","subject_unq"
"1",1,7,1,-3,14,3.30699999999979,"uc",100,11014
"2",1,7,1,-3,9,4.30500000000029,"uc",100,11009
"3",1,7,1,-3,14,4.50799999999981,"send",1,11014
"4",1,7,1,-3,22,4.56999999999971,"uc",50,11022
"5",1,7,1,-3,2,5.28799999999956,"uc",0,11002
"6",1,7,1,-3,20,5.35000000000036,"uc",0,11020
"7",1,7,1,-3,7,5.42799999999988,"uc",100,11007
"8",1,7,1,-3,16,5.64699999999994,"uc",50,11016
"9",1,7,1,-3,22,6.13000000000011,"uc",0,11022
"10",1,7,1,-3,11,6.20799999999963,"uc",100,11011
"11",1,7,1,-3,12,6.53600000000006,"uc",100,11012
"12",1,7,1,-3,8,6.72299999999996,"uc",50,11008
"13",1,7,1,-3,9,6.98800000000028,"send",1,11009
"14",1,7,1,-3,7,7.09799999999996,"send",1,11007
"15",1,7,1,-3,22,7.34699999999975,"send",1,11022
"16",1,7,1,-3,11,7.4409999999998,"send",1,11011
"17",1,7,1,-3,1,7.47199999999975,"uc",50,11001
"18",1,7,1,-3,4,7.51900000000023,"uc",100,11004
"19",1,7,1,-3,15,7.51900000000023,"uc",0,11015
"20",1,7,1,-3,14,7.5659999999998,"confirm",1,11014
"21",1,7,1,-3,16,7.58100000000013,"send",1,11016
"22",1,7,1,-3,20,7.6279999999997,"send",1,11020
"23",1,7,1,-3,2,7.84599999999955,"send",1,11002
"24",1,7,1,-3,12,8.01800000000003,"send",1,11012
"25",1,7,1,-3,13,8.29899999999998,"uc",100,11013
"26",1,7,1,-3,8,8.54799999999977,"send",1,11008
"27",1,7,1,-3,15,8.6260000000002,"send",1,11015
"28",1,7,1,-3,1,9.10999999999967,"send",1,11001
"29",1,7,1,-3,10,9.26599999999962,"uc",50,11010
"30",1,7,1,-3,18,9.34400000000005,"uc",100,11018
"31",1,7,1,-3,13,9.54699999999957,"send",1,11013
"32",1,7,1,-3,20,9.98400000000038,"confirm",1,11020
"33",1,7,1,-3,2,10.0619999999999,"confirm",1,11002
"34",1,7,1,-3,12,10.3580000000002,"confirm",1,11012
"35",1,7,1,-3,10,10.5450000000001,"send",1,11010
"36",1,7,1,-3,6,10.6080000000002,"uc",100,11006
"37",1,7,1,-3,22,10.6229999999996,"confirm",1,11022
"38",1,7,1,-3,9,10.6700000000001,"confirm",1,11009
"39",1,7,1,-3,4,11.4809999999998,"send",1,11004
"40",1,7,1,-3,18,11.7619999999997,"send",1,11018
"41",1,7,1,-3,11,11.9650000000002,"confirm",1,11011
"42",1,7,1,-3,16,12.2929999999997,"confirm",1,11016
"43",1,7,1,-3,7,12.5420000000004,"confirm",1,11007
"44",1,7,1,-3,5,12.558,"uc",100,11005
"45",1,7,1,-3,8,12.6360000000004,"confirm",1,11008
"46",1,7,1,-3,10,12.7139999999999,"confirm",1,11010
"47",1,7,1,-3,13,12.8540000000003,"confirm",1,11013
"48",1,7,1,-3,1,13.6809999999996,"confirm",1,11001
"49",1,7,1,-3,15,13.884,"confirm",1,11015
"50",1,7,1,-3,3,14.2740000000003,"uc",50,11003
"51",1,7,1,-3,6,14.3829999999998,"send",1,11006
"52",1,7,1,-3,18,14.5550000000003,"confirm",1,11018
"53",1,7,1,-3,5,15.1940000000004,"send",1,11005
"54",1,7,1,-3,4,17.9549999999999,"confirm",1,11004
"55",1,7,1,-3,3,18.0330000000004,"send",1,11003
"56",1,7,1,-3,6,18.0649999999996,"confirm",1,11006
"57",1,7,1,-3,5,18.2049999999999,"confirm",1,11005
"58",1,7,1,-3,19,18.6890000000003,"uc",100,11019
"59",1,7,1,-3,19,19.7340000000004,"send",1,11019
"60",1,7,1,-3,17,21.2939999999999,"uc",100,11017
"61",1,7,1,-3,17,23.2280000000001,"send",1,11017
"62",1,7,1,-3,3,24.585,"confirm",1,11003
"63",1,7,1,-3,17,27.0810000000001,"confirm",1,11017
"64",1,7,1,-3,19,33.8360000000002,"confirm",1,11019
"65",1,7,1,-3,21,53.1800000000003,"uc",0,11021
"66",1,7,1,-3,21,54.9120000000003,"send",1,11021
"67",1,7,1,-3,21,57.268,"confirm",1,11021
"68",1,8,1,-3,14,3.32299999999941,"ccL",0,11014
"69",1,8,1,-3,14,3.88499999999931,"ccM",50,11014
"70",1,8,1,-3,17,4.08699999999953,"ccL",0,11017
"71",1,8,1,-3,4,4.33699999999953,"ccL",0,11004
"72",1,8,1,-3,14,4.44599999999991,"ccH",100,11014
"73",1,8,1,-3,17,4.88299999999981,"ccM",50,11017
"74",1,8,1,-3,15,5.21099999999933,"ccL",0,11015
"75",1,8,1,-3,22,5.28899999999976,"ccL",0,11022
"76",1,8,1,-3,12,5.35099999999966,"ccL",100,11012
"77",1,8,1,-3,14,5.55400000000009,"send",1,11014
"78",1,8,1,-3,20,5.75699999999961,"ccL",0,11020
"79",1,8,1,-3,4,5.84999999999945,"ccM",0,11004
"80",1,8,1,-3,9,6.0059999999994,"ccL",0,11009
"81",1,8,1,-3,17,6.34899999999925,"ccH",100,11017
"82",1,8,1,-3,2,6.4429999999993,"ccL",0,11002
"83",1,8,1,-3,12,6.45899999999983,"ccM",100,11012
"84",1,8,1,-3,7,6.48999999999978,"ccL",0,11007
"85",1,8,1,-3,2,7.23899999999958,"ccM",0,11002
"86",1,8,1,-3,4,7.31700000000001,"ccH",0,11004
"87",1,8,1,-3,12,7.4409999999998,"ccH",100,11012
"88",1,8,1,-3,7,7.53499999999985,"ccM",50,11007
"89",1,8,1,-3,22,7.55099999999948,"ccM",50,11022
"90",1,8,1,-3,6,7.78499999999985,"ccL",0,11006
"91",1,8,1,-3,10,7.90899999999965,"ccL",0,11010
"92",1,8,1,-3,16,7.98700000000008,"ccL",0,11016
"93",1,8,1,-3,20,8.08099999999922,"ccM",50,11020
"94",1,8,1,-3,15,8.15899999999965,"ccM",50,11015
"95",1,8,1,-3,14,8.29899999999998,"confirm",1,11014
"96",1,8,1,-3,2,8.40899999999965,"ccH",0,11002
"97",1,8,1,-3,4,8.51800000000003,"send",1,11004
"98",1,8,1,-3,16,8.61099999999988,"ccM",50,11016
"99",1,8,1,-3,5,8.89199999999983,"ccL",50,11005
"100",1,8,1,-3,12,9.03299999999945,"send",1,11012
"101",1,8,1,-3,9,9.14199999999983,"ccM",50,11009
"102",1,8,1,-3,22,9.31299999999919,"ccH",50,11022
"103",1,8,1,-3,20,9.39099999999962,"ccH",50,11020
"104",1,8,1,-3,17,9.51599999999962,"send",1,11017
"105",1,8,1,-3,2,9.60999999999967,"send",1,11002
"106",1,8,1,-3,10,9.65699999999924,"ccM",50,11010
"107",1,8,1,-3,16,10.0469999999996,"ccH",100,11016
"108",1,8,1,-3,22,10.0619999999999,"send",1,11022
"109",1,8,1,-3,7,10.2339999999995,"ccH",100,11007
"110",1,8,1,-3,20,10.3119999999999,"send",1,11020
"111",1,8,1,-3,10,10.4209999999994,"ccH",50,11010
"112",1,8,1,-3,12,10.4369999999999,"confirm",1,11012
"113",1,8,1,-3,9,10.6079999999993,"ccH",100,11009
"114",1,8,1,-3,11,10.8269999999993,"ccH",100,11011
"115",1,8,1,-3,16,10.9049999999998,"send",1,11016
"116",1,8,1,-3,4,11.2479999999996,"confirm",1,11004
"117",1,8,1,-3,18,11.7469999999994,"ccH",100,11018
"118",1,8,1,-3,10,11.8249999999998,"send",1,11010
"119",1,8,1,-3,17,11.8869999999997,"confirm",1,11017
"120",1,8,1,-3,7,11.9029999999993,"send",1,11007
"121",1,8,1,-3,20,12.1059999999998,"confirm",1,11020
"122",1,8,1,-3,9,12.2149999999992,"send",1,11009
"123",1,8,1,-3,22,12.277,"confirm",1,11022
"124",1,8,1,-3,15,12.5739999999996,"ccM",0,11015
"125",1,8,1,-3,18,12.652,"ccM",50,11018
"126",1,8,1,-3,3,13.0569999999998,"ccM",50,11003
"127",1,8,1,-3,1,13.1349999999993,"ccL",0,11001
"128",1,8,1,-3,15,13.1819999999998,"ccH",0,11015
"129",1,8,1,-3,2,13.2129999999997,"confirm",1,11002
"130",1,8,1,-3,11,13.3539999999994,"ccM",50,11011
"131",1,8,1,-3,10,13.6189999999997,"confirm",1,11010
"132",1,8,1,-3,16,13.759,"confirm",1,11016
"133",1,8,1,-3,8,13.884,"ccL",0,11008
"134",1,8,1,-3,18,13.9619999999995,"ccL",0,11018
"135",1,8,1,-3,5,13.9619999999995,"ccM",100,11005
"136",1,8,1,-3,1,14.0559999999996,"ccM",50,11001
"137",1,8,1,-3,11,14.6329999999998,"ccL",0,11011
"138",1,8,1,-3,7,14.8049999999994,"confirm",1,11007
"139",1,8,1,-3,9,14.8979999999992,"confirm",1,11009
"140",1,8,1,-3,13,15.1790000000001,"ccH",100,11013
"141",1,8,1,-3,1,15.7719999999999,"ccH",100,11001
"142",1,8,1,-3,15,15.8809999999994,"send",1,11015
"143",1,8,1,-3,8,15.9589999999998,"ccM",50,11008
"144",1,8,1,-3,3,16.0059999999994,"ccL",0,11003
"145",1,8,1,-3,11,16.5679999999993,"send",1,11011
"146",1,8,1,-3,18,17.0199999999995,"send",1,11018
"147",1,8,1,-3,13,17.4719999999997,"ccL",0,11013
"148",1,8,1,-3,15,17.5969999999997,"confirm",1,11015
"149",1,8,1,-3,1,17.6749999999993,"ccM",100,11001
"150",1,8,1,-3,8,17.9870000000001,"ccH",100,11008
"151",1,8,1,-3,6,18.0959999999995,"ccM",0,11006
"152",1,8,1,-3,13,18.6269999999995,"ccM",50,11013
"153",1,8,1,-3,3,18.7049999999999,"ccH",50,11003
"154",1,8,1,-3,6,18.9389999999994,"ccH",50,11006
"155",1,8,1,-3,5,19.1099999999997,"ccH",100,11005
"156",1,8,1,-3,13,19.4379999999992,"send",1,11013
"157",1,8,1,-3,1,19.5159999999996,"send",1,11001
"158",1,8,1,-3,18,19.5779999999995,"confirm",1,11018
"159",1,8,1,-3,8,19.6409999999996,"send",1,11008
"160",1,8,1,-3,11,20.4049999999997,"confirm",1,11011
"161",1,8,1,-3,5,20.7950000000001,"send",1,11005
"162",1,8,1,-3,1,21.9809999999998,"confirm",1,11001
"163",1,8,1,-3,13,22.558,"confirm",1,11013
"164",1,8,1,-3,3,23.5249999999996,"send",1,11003
"165",1,8,1,-3,5,23.7439999999997,"confirm",1,11005
"166",1,8,1,-3,8,24.009,"confirm",1,11008
"167",1,8,1,-3,3,28.8919999999998,"confirm",1,11003
"168",1,8,1,-3,21,29.9989999999998,"ccL",100,11021
"169",1,8,1,-3,6,30.2799999999997,"send",1,11006
"170",1,8,1,-3,21,31.076,"ccM",50,11021
"171",1,8,1,-3,21,33.2749999999996,"ccH",0,11021
"172",1,8,1,-3,6,34.1959999999999,"confirm",1,11006
"173",1,8,1,-3,19,34.7259999999997,"ccL",0,11019
"174",1,8,1,-3,19,35.3499999999994,"ccM",50,11019
"175",1,8,1,-3,21,35.9739999999993,"ccL",0,11021
"176",1,8,1,-3,19,36.317,"ccH",100,11019
"177",1,8,1,-3,21,36.9879999999994,"ccH",100,11021
"178",1,8,1,-3,21,46.4889999999996,"ccM",0,11021
"179",1,8,1,-3,21,46.9879999999994,"ccH",0,11021
"180",1,8,1,-3,21,48.7969999999996,"send",1,11021
"181",1,8,1,-3,21,51.4649999999992,"confirm",1,11021
"182",1,8,1,-3,19,51.5589999999993,"send",1,11019
"183",1,8,1,-3,19,64.9749999999995,"confirm",1,11019
"184",1,7,1,-2,14,2.57399999999961,"uc",100,11014
"185",1,7,1,-2,12,2.79200000000037,"uc",100,11012
"186",1,7,1,-2,21,2.86999999999989,"uc",0,11021
"187",1,7,1,-2,20,3.15099999999984,"uc",50,11020
"188",1,7,1,-2,9,3.24499999999989,"uc",100,11009
"189",1,7,1,-2,4,3.24499999999989,"uc",50,11004
"190",1,7,1,-2,14,3.29200000000037,"send",1,11014
"191",1,7,1,-2,7,3.49399999999969,"uc",100,11007
"192",1,7,1,-2,10,3.57200000000012,"uc",100,11010
"193",1,7,1,-2,22,3.64999999999964,"uc",50,11022
"194",1,7,1,-2,15,3.74399999999969,"uc",50,11015
"195",1,7,1,-2,12,3.93099999999958,"send",1,11012
"196",1,7,1,-2,21,4.07200000000012,"send",1,11021
"197",1,7,1,-2,4,4.14999999999964,"send",1,11004
"198",1,7,1,-2,13,4.27400000000034,"uc",100,11013
"199",1,7,1,-2,14,4.47699999999986,"confirm",1,11014
"200",1,7,1,-2,2,4.80500000000029,"uc",0,11002
"201",1,7,1,-2,7,4.89800000000014,"send",1,11007
"202",1,7,1,-2,19,5.05400000000009,"uc",100,11019
"203",1,7,1,-2,22,5.05400000000009,"send",1,11022
"204",1,7,1,-2,1,5.14800000000014,"uc",100,11001
"205",1,7,1,-2,12,5.14800000000014,"confirm",1,11012
"206",1,7,1,-2,20,5.16399999999976,"send",1,11020
"207",1,7,1,-2,10,5.17900000000009,"send",1,11010
"208",1,7,1,-2,9,5.25699999999961,"uc",50,11009
"209",1,7,1,-2,13,5.35099999999966,"send",1,11013
"210",1,7,1,-2,15,5.36599999999998,"send",1,11015
"211",1,7,1,-2,16,5.47599999999966,"uc",0,11016
"212",1,7,1,-2,4,5.56900000000041,"confirm",1,11004
"213",1,7,1,-2,3,5.80299999999988,"uc",50,11003
"214",1,7,1,-2,21,5.88100000000031,"confirm",1,11021
"215",1,7,1,-2,16,6.25600000000031,"send",1,11016
"216",1,7,1,-2,19,6.27099999999973,"send",1,11019
"217",1,7,1,-2,8,6.36499999999978,"uc",0,11008
"218",1,7,1,-2,1,6.36499999999978,"send",1,11001
"219",1,7,1,-2,7,6.56800000000021,"confirm",1,11007
"220",1,7,1,-2,13,6.63000000000011,"confirm",1,11013
"221",1,7,1,-2,10,6.67699999999968,"confirm",1,11010
"222",1,7,1,-2,15,6.72400000000016,"confirm",1,11015
"223",1,7,1,-2,2,6.98899999999958,"send",1,11002
"224",1,7,1,-2,22,7.05100000000039,"confirm",1,11022
"225",1,7,1,-2,20,7.15999999999985,"confirm",1,11020
"226",1,7,1,-2,3,7.34799999999996,"send",1,11003
"227",1,7,1,-2,16,7.70600000000013,"confirm",1,11016
"228",1,7,1,-2,8,8.05000000000018,"send",1,11008
"229",1,7,1,-2,19,8.36200000000008,"confirm",1,11019
"230",1,7,1,-2,1,8.65800000000036,"confirm",1,11001
"231",1,7,1,-2,11,8.79799999999977,"uc",100,11011
"232",1,7,1,-2,2,8.97000000000025,"confirm",1,11002
"233",1,7,1,-2,5,9.57800000000043,"uc",50,11005
"234",1,7,1,-2,8,9.67199999999957,"confirm",1,11008
"235",1,7,1,-2,9,9.79699999999957,"uc",0,11009
"236",1,7,1,-2,18,9.875,"uc",100,11018
"237",1,7,1,-2,11,10.0150000000003,"send",1,11011
"238",1,7,1,-2,3,10.7169999999996,"confirm",1,11003
"239",1,7,1,-2,9,11.1540000000004,"send",1,11009
"240",1,7,1,-2,17,11.482,"uc",100,11017
"241",1,7,1,-2,11,11.7309999999998,"confirm",1,11011
"242",1,7,1,-2,18,11.8559999999998,"send",1,11018
"243",1,7,1,-2,17,12.7920000000004,"send",1,11017
"244",1,7,1,-2,5,12.9319999999998,"send",1,11005
"245",1,7,1,-2,18,13.1980000000003,"confirm",1,11018
"246",1,7,1,-2,9,13.4780000000001,"confirm",1,11009
"247",1,7,1,-2,6,13.6189999999997,"uc",0,11006
"248",1,7,1,-2,17,14.6639999999998,"confirm",1,11017
"249",1,7,1,-2,5,16.2550000000001,"confirm",1,11005
"250",1,7,1,-2,6,16.3800000000001,"send",1,11006
"251",1,7,1,-2,6,20.0309999999999,"confirm",1,11006
"252",1,8,1,-2,14,1.52899999999954,"ccL",0,11014
"253",1,8,1,-2,2,2.15299999999934,"ccL",0,11002
"254",1,8,1,-2,4,2.26199999999972,"ccL",0,11004
"255",1,8,1,-2,20,2.34000000000015,"ccL",100,11020
"256",1,8,1,-2,7,2.55899999999929,"ccL",0,11007
"257",1,8,1,-2,17,2.77700000000004,"ccL",0,11017
"258",1,8,1,-2,13,2.77700000000004,"ccL",0,11013
"259",1,8,1,-2,14,2.79299999999966,"ccM",50,11014
"260",1,8,1,-2,15,2.88599999999951,"ccL",50,11015
"261",1,8,1,-2,2,2.90200000000004,"ccM",0,11002
"262",1,8,1,-2,18,2.96399999999994,"ccL",0,11018
"263",1,8,1,-2,4,3.29199999999946,"ccM",0,11004
"264",1,8,1,-2,13,3.44799999999941,"ccM",50,11013
"265",1,8,1,-2,20,3.54100000000017,"ccM",50,11020
"266",1,8,1,-2,17,3.54100000000017,"ccM",50,11017
"267",1,8,1,-2,10,3.63499999999931,"ccH",100,11010
"268",1,8,1,-2,2,3.71299999999974,"ccH",0,11002
"269",1,8,1,-2,14,3.72899999999936,"ccH",0,11014
"270",1,8,1,-2,16,3.74399999999969,"ccL",0,11016
"271",1,8,1,-2,7,3.77499999999964,"ccM",50,11007
"272",1,8,1,-2,18,3.86899999999969,"ccM",50,11018
"273",1,8,1,-2,22,3.96299999999974,"ccL",0,11022
"274",1,8,1,-2,15,3.96299999999974,"ccM",50,11015
"275",1,8,1,-2,4,4.13400000000002,"ccH",0,11004
"276",1,8,1,-2,13,4.13400000000002,"ccH",100,11013
"277",1,8,1,-2,20,4.28999999999996,"ccH",50,11020
"278",1,8,1,-2,10,4.36799999999948,"ccM",50,11010
"279",1,8,1,-2,14,4.44599999999991,"send",1,11014
"280",1,8,1,-2,15,4.50900000000002,"ccH",50,11015
"281",1,8,1,-2,16,4.66499999999996,"ccM",50,11016
"282",1,8,1,-2,17,4.77399999999943,"ccH",100,11017
"283",1,8,1,-2,7,4.78899999999976,"ccH",100,11007
"284",1,8,1,-2,18,4.89899999999943,"ccH",100,11018
"285",1,8,1,-2,13,4.97699999999986,"send",1,11013
"286",1,8,1,-2,2,5.00799999999981,"send",1,11002
"287",1,8,1,-2,1,5.05499999999938,"ccL",0,11001
"288",1,8,1,-2,4,5.08599999999933,"send",1,11004
"289",1,8,1,-2,10,5.13299999999981,"ccL",0,11010
"290",1,8,1,-2,5,5.22599999999966,"ccL",50,11005
"291",1,8,1,-2,19,5.39800000000014,"ccL",0,11019
"292",1,8,1,-2,8,5.44499999999971,"ccL",0,11008
"293",1,8,1,-2,20,5.44499999999971,"send",1,11020
"294",1,8,1,-2,14,5.49099999999998,"confirm",1,11014
"295",1,8,1,-2,7,5.60099999999966,"send",1,11007
"296",1,8,1,-2,22,5.71000000000004,"ccM",50,11022
"297",1,8,1,-2,16,5.77199999999994,"ccH",50,11016
"298",1,8,1,-2,15,5.83500000000004,"send",1,11015
"299",1,8,1,-2,1,6.03699999999935,"ccM",100,11001
"300",1,8,1,-2,13,6.11499999999978,"confirm",1,11013
"301",1,8,1,-2,5,6.16199999999935,"ccM",100,11005
"302",1,8,1,-2,10,6.1929999999993,"send",1,11010
"303",1,8,1,-2,22,6.23999999999978,"ccH",50,11022
"304",1,8,1,-2,17,6.28699999999935,"send",1,11017
"305",1,8,1,-2,8,6.3179999999993,"ccM",100,11008
"306",1,8,1,-2,16,6.39599999999973,"send",1,11016
"307",1,8,1,-2,19,6.41199999999935,"ccM",50,11019
"308",1,8,1,-2,5,6.78600000000006,"ccH",100,11005
"309",1,8,1,-2,7,6.84900000000016,"confirm",1,11007
"310",1,8,1,-2,9,6.86399999999958,"ccL",0,11009
"311",1,8,1,-2,15,6.95799999999963,"confirm",1,11015
"312",1,8,1,-2,22,7.12899999999991,"send",1,11022
"313",1,8,1,-2,19,7.20699999999943,"ccH",100,11019
"314",1,8,1,-2,1,7.26999999999953,"ccH",100,11001
"315",1,8,1,-2,2,7.31700000000001,"confirm",1,11002
"316",1,8,1,-2,20,7.39499999999953,"confirm",1,11020
"317",1,8,1,-2,16,7.62899999999991,"confirm",1,11016
"318",1,8,1,-2,17,7.72199999999975,"confirm",1,11017
"319",1,8,1,-2,5,7.86299999999937,"send",1,11005
"320",1,8,1,-2,10,8.0649999999996,"confirm",1,11010
"321",1,8,1,-2,1,8.34599999999955,"send",1,11001
"322",1,8,1,-2,19,8.54899999999998,"send",1,11019
"323",1,8,1,-2,9,8.90799999999945,"ccM",100,11009
"324",1,8,1,-2,22,9.09499999999935,"confirm",1,11022
"325",1,8,1,-2,12,9.1889999999994,"ccH",100,11012
"326",1,8,1,-2,5,9.625,"confirm",1,11005
"327",1,8,1,-2,1,9.90599999999995,"confirm",1,11001
"328",1,8,1,-2,6,10,"ccL",0,11006
"329",1,8,1,-2,11,10.125,"ccL",100,11011
"330",1,8,1,-2,6,10.7169999999996,"ccM",50,11006
"331",1,8,1,-2,9,11.6379999999999,"ccH",0,11009
"332",1,8,1,-2,11,11.7309999999998,"ccM",100,11011
"333",1,8,1,-2,6,11.9189999999999,"ccH",100,11006
"334",1,8,1,-2,12,12.4799999999996,"ccL",50,11012
"335",1,8,1,-2,11,12.5739999999996,"ccH",100,11011
"336",1,8,1,-2,4,12.7139999999999,"confirm",1,11004
"337",1,8,1,-2,9,13.0109999999995,"send",1,11009
"338",1,8,1,-2,12,13.1199999999999,"ccM",50,11012
"339",1,8,1,-2,8,13.5879999999997,"ccM",50,11008
"340",1,8,1,-2,12,13.6809999999996,"ccL",0,11012
"341",1,8,1,-2,3,13.759,"ccL",0,11003
"342",1,8,1,-2,6,13.9309999999996,"send",1,11006
"343",1,8,1,-2,11,14.009,"send",1,11011
"344",1,8,1,-2,12,14.7579999999998,"send",1,11012
"345",1,8,1,-2,3,14.8509999999997,"ccM",50,11003
"346",1,8,1,-2,9,14.9759999999997,"confirm",1,11009
"347",1,8,1,-2,8,15.2879999999996,"ccH",50,11008
"348",1,8,1,-2,6,15.3819999999996,"confirm",1,11006
"349",1,8,1,-2,3,15.6309999999994,"ccH",50,11003
"350",1,8,1,-2,11,15.7249999999995,"confirm",1,11011
"351",1,8,1,-2,12,16.0369999999993,"confirm",1,11012
"352",1,8,1,-2,8,16.5050000000001,"send",1,11008
"353",1,8,1,-2,3,16.7079999999996,"send",1,11003
"354",1,8,1,-2,8,17.7839999999997,"confirm",1,11008
"355",1,8,1,-2,18,18.7979999999998,"ccM",0,11018
"356",1,8,1,-2,3,19.5309999999999,"confirm",1,11003
"357",1,8,1,-2,18,19.7029999999995,"ccH",0,11018
"358",1,8,1,-2,18,25.6149999999998,"send",1,11018
"359",1,8,1,-2,19,26.692,"confirm",1,11019
"360",1,8,1,-2,18,27.5500000000002,"confirm",1,11018
"361",1,8,1,-2,21,40.0299999999998,"ccL",0,11021
"362",1,8,1,-2,21,41.1529999999993,"ccM",50,11021
"363",1,8,1,-2,21,41.8549999999996,"ccH",100,11021
"364",1,8,1,-2,21,42.7910000000002,"send",1,11021
"365",1,8,1,-2,21,44.0239999999994,"confirm",1,11021
"366",1,5,1,-1,20,14.415,"buc_L",50,11020
"367",1,5,1,-1,20,14.415,"buc_M",50,11020
"368",1,5,1,-1,20,14.415,"buc_H",0,11020
"369",1,5,1,-1,1,22.4180000000006,"buc_L",0,11001
"370",1,5,1,-1,1,22.4180000000006,"buc_M",50,11001
"371",1,5,1,-1,1,22.4180000000006,"buc_H",50,11001
"372",1,5,1,-1,4,24.3680000000004,"buc_L",0,11004
"373",1,5,1,-1,4,24.3680000000004,"buc_M",50,11004
"374",1,5,1,-1,4,24.3680000000004,"buc_H",50,11004
"375",1,5,1,-1,14,24.8980000000001,"buc_L",35,11014
"376",1,5,1,-1,14,24.8980000000001,"buc_M",45,11014
"377",1,5,1,-1,14,24.8980000000001,"buc_H",20,11014
"378",1,5,1,-1,16,27.5030000000006,"buc_L",40,11016
"379",1,5,1,-1,16,27.5030000000006,"buc_M",40,11016
"380",1,5,1,-1,16,27.5030000000006,"buc_H",20,11016
"381",1,5,1,-1,3,35.5840000000007,"buc_L",35,11003
"382",1,5,1,-1,3,35.5840000000007,"buc_M",40,11003
"383",1,5,1,-1,3,35.5840000000007,"buc_H",25,11003
"384",1,5,1,-1,12,36.0990000000002,"buc_L",30,11012
"385",1,5,1,-1,12,36.0990000000002,"buc_M",30,11012
"386",1,5,1,-1,12,36.0990000000002,"buc_H",40,11012
"387",1,5,1,-1,15,36.3020000000006,"buc_L",70,11015
"388",1,5,1,-1,15,36.3020000000006,"buc_M",20,11015
"389",1,5,1,-1,15,36.3020000000006,"buc_H",10,11015
"390",1,5,1,-1,7,37.643,"buc_L",10,11007
"391",1,5,1,-1,7,37.643,"buc_M",15,11007
"392",1,5,1,-1,7,37.643,"buc_H",75,11007
"393",1,5,1,-1,13,39.3130000000001,"buc_L",30,11013
"394",1,5,1,-1,13,39.3130000000001,"buc_M",35,11013
"395",1,5,1,-1,13,39.3130000000001,"buc_H",35,11013
"396",1,5,1,-1,19,40.1240000000007,"buc_L",0,11019
"397",1,5,1,-1,19,40.1240000000007,"buc_M",0,11019
"398",1,5,1,-1,19,40.1240000000007,"buc_H",100,11019
"399",1,5,1,-1,2,40.5450000000001,"buc_L",70,11002
"400",1,5,1,-1,2,40.5450000000001,"buc_M",30,11002
"401",1,5,1,-1,2,40.5450000000001,"buc_H",0,11002
"402",1,5,1,-1,22,41.6990000000005,"buc_L",85,11022
"403",1,5,1,-1,22,41.6990000000005,"buc_M",15,11022
"404",1,5,1,-1,22,41.6990000000005,"buc_H",0,11022
"405",1,5,1,-1,11,42.2139999999999,"buc_L",0,11011
"406",1,5,1,-1,11,42.2139999999999,"buc_M",50,11011
"407",1,5,1,-1,11,42.2139999999999,"buc_H",50,11011
"408",1,5,1,-1,10,44.2890000000007,"buc_L",15,11010
"409",1,5,1,-1,10,44.2890000000007,"buc_M",80,11010
"410",1,5,1,-1,10,44.2890000000007,"buc_H",5,11010
"411",1,5,1,-1,21,46.5200000000004,"buc_L",50,11021
"412",1,5,1,-1,21,46.5200000000004,"buc_M",40,11021
"413",1,5,1,-1,21,46.5200000000004,"buc_H",10,11021
"414",1,5,1,-1,9,49.0940000000001,"buc_L",0,11009
"415",1,5,1,-1,9,49.0940000000001,"buc_M",90,11009
"416",1,5,1,-1,9,49.0940000000001,"buc_H",10,11009
"417",1,5,1,-1,8,51.527,"buc_L",30,11008
"418",1,5,1,-1,8,51.527,"buc_M",30,11008
"419",1,5,1,-1,8,51.527,"buc_H",40,11008
"420",1,5,1,-1,5,51.6210000000001,"buc_L",5,11005
"421",1,5,1,-1,5,51.6210000000001,"buc_M",75,11005
"422",1,5,1,-1,5,51.6210000000001,"buc_H",20,11005
"423",1,5,1,-1,18,61.7920000000004,"buc_L",30,11018
"424",1,5,1,-1,18,61.7920000000004,"buc_M",40,11018
"425",1,5,1,-1,18,61.7920000000004,"buc_H",30,11018
"426",1,5,1,-1,6,75.2400000000007,"buc_L",35,11006
"427",1,5,1,-1,6,75.2400000000007,"buc_M",35,11006
"428",1,5,1,-1,6,75.2400000000007,"buc_H",30,11006
"429",1,5,1,-1,17,77.9700000000003,"buc_L",40,11017
"430",1,5,1,-1,17,77.9700000000003,"buc_M",20,11017
"431",1,5,1,-1,17,77.9700000000003,"buc_H",40,11017
"432",1,6,1,-1,7,21.4349999999995,"bccL_L",100,11007
"433",1,6,1,-1,7,21.4349999999995,"bccL_M",0,11007
"434",1,6,1,-1,7,21.4349999999995,"bccL_H",0,11007
"435",1,6,1,-1,7,21.4349999999995,"bccM_L",0,11007
"436",1,6,1,-1,7,21.4349999999995,"bccM_M",100,11007
"437",1,6,1,-1,7,21.4349999999995,"bccM_H",0,11007
"438",1,6,1,-1,7,21.4349999999995,"bccH_L",0,11007
"439",1,6,1,-1,7,21.4349999999995,"bccH_M",0,11007
"440",1,6,1,-1,7,21.4349999999995,"bccH_H",100,11007
"441",1,6,1,-1,14,24.5859999999993,"bccL_L",100,11014
"442",1,6,1,-1,14,24.5859999999993,"bccL_M",0,11014
"443",1,6,1,-1,14,24.5859999999993,"bccL_H",0,11014
"444",1,6,1,-1,14,24.5859999999993,"bccM_L",30,11014
"445",1,6,1,-1,14,24.5859999999993,"bccM_M",35,11014
"446",1,6,1,-1,14,24.5859999999993,"bccM_H",35,11014
"447",1,6,1,-1,14,24.5859999999993,"bccH_L",0,11014
"448",1,6,1,-1,14,24.5859999999993,"bccH_M",100,11014
"449",1,6,1,-1,14,24.5859999999993,"bccH_H",0,11014
"450",1,6,1,-1,2,25.7249999999995,"bccL_L",100,11002
"451",1,6,1,-1,2,25.7249999999995,"bccL_M",0,11002
"452",1,6,1,-1,2,25.7249999999995,"bccL_H",0,11002
"453",1,6,1,-1,2,25.7249999999995,"bccM_L",0,11002
"454",1,6,1,-1,2,25.7249999999995,"bccM_M",100,11002
"455",1,6,1,-1,2,25.7249999999995,"bccM_H",0,11002
"456",1,6,1,-1,2,25.7249999999995,"bccH_L",0,11002
"457",1,6,1,-1,2,25.7249999999995,"bccH_M",0,11002
"458",1,6,1,-1,2,25.7249999999995,"bccH_H",100,11002
"459",1,6,1,-1,12,32.5259999999998,"bccL_L",90,11012
"460",1,6,1,-1,12,32.5259999999998,"bccL_M",10,11012
"461",1,6,1,-1,12,32.5259999999998,"bccL_H",0,11012
"462",1,6,1,-1,12,32.5259999999998,"bccM_L",10,11012
"463",1,6,1,-1,12,32.5259999999998,"bccM_M",80,11012
"464",1,6,1,-1,12,32.5259999999998,"bccM_H",10,11012
"465",1,6,1,-1,12,32.5259999999998,"bccH_L",0,11012
"466",1,6,1,-1,12,32.5259999999998,"bccH_M",0,11012
"467",1,6,1,-1,12,32.5259999999998,"bccH_H",100,11012
"468",1,6,1,-1,17,40.826,"bccL_L",100,11017
"469",1,6,1,-1,17,40.826,"bccL_M",0,11017
"470",1,6,1,-1,17,40.826,"bccL_H",0,11017
"471",1,6,1,-1,17,40.826,"bccM_L",50,11017
"472",1,6,1,-1,17,40.826,"bccM_M",50,11017
"473",1,6,1,-1,17,40.826,"bccM_H",0,11017
"474",1,6,1,-1,17,40.826,"bccH_L",50,11017
"475",1,6,1,-1,17,40.826,"bccH_M",0,11017
"476",1,6,1,-1,17,40.826,"bccH_H",50,11017
"477",1,6,1,-1,10,48.1579999999994,"bccL_L",100,11010
"478",1,6,1,-1,10,48.1579999999994,"bccL_M",0,11010
"479",1,6,1,-1,10,48.1579999999994,"bccL_H",0,11010
"480",1,6,1,-1,10,48.1579999999994,"bccM_L",25,11010
"481",1,6,1,-1,10,48.1579999999994,"bccM_M",75,11010
"482",1,6,1,-1,10,48.1579999999994,"bccM_H",0,11010
"483",1,6,1,-1,10,48.1579999999994,"bccH_L",25,11010
"484",1,6,1,-1,10,48.1579999999994,"bccH_M",65,11010
"485",1,6,1,-1,10,48.1579999999994,"bccH_H",10,11010
"486",1,6,1,-1,16,49.8739999999998,"bccL_L",25,11016
"487",1,6,1,-1,16,49.8739999999998,"bccL_M",50,11016
"488",1,6,1,-1,16,49.8739999999998,"bccL_H",25,11016
"489",1,6,1,-1,16,49.8739999999998,"bccM_L",65,11016
"490",1,6,1,-1,16,49.8739999999998,"bccM_M",30,11016
"491",1,6,1,-1,16,49.8739999999998,"bccM_H",5,11016
"492",1,6,1,-1,16,49.8739999999998,"bccH_L",5,11016
"493",1,6,1,-1,16,49.8739999999998,"bccH_M",35,11016
"494",1,6,1,-1,16,49.8739999999998,"bccH_H",60,11016
"495",1,6,1,-1,9,50.326,"bccL_L",100,11009
"496",1,6,1,-1,9,50.326,"bccL_M",0,11009
"497",1,6,1,-1,9,50.326,"bccL_H",0,11009
"498",1,6,1,-1,9,50.326,"bccM_L",25,11009
"499",1,6,1,-1,9,50.326,"bccM_M",75,11009
"500",1,6,1,-1,9,50.326,"bccM_H",0,11009
"501",1,6,1,-1,9,50.326,"bccH_L",40,11009
"502",1,6,1,-1,9,50.326,"bccH_M",10,11009
"503",1,6,1,-1,9,50.326,"bccH_H",50,11009
"504",1,6,1,-1,8,54.4129999999996,"bccL_L",10,11008
"505",1,6,1,-1,8,54.4129999999996,"bccL_M",10,11008
"506",1,6,1,-1,8,54.4129999999996,"bccL_H",80,11008
"507",1,6,1,-1,8,54.4129999999996,"bccM_L",10,11008
"508",1,6,1,-1,8,54.4129999999996,"bccM_M",80,11008
"509",1,6,1,-1,8,54.4129999999996,"bccM_H",10,11008
"510",1,6,1,-1,8,54.4129999999996,"bccH_L",50,11008
"511",1,6,1,-1,8,54.4129999999996,"bccH_M",25,11008
"512",1,6,1,-1,8,54.4129999999996,"bccH_H",25,11008
"513",1,6,1,-1,1,55.1309999999994,"bccL_L",100,11001
"514",1,6,1,-1,1,55.1309999999994,"bccL_M",0,11001
"515",1,6,1,-1,1,55.1309999999994,"bccL_H",0,11001
"516",1,6,1,-1,1,55.1309999999994,"bccM_L",30,11001
"517",1,6,1,-1,1,55.1309999999994,"bccM_M",35,11001
"518",1,6,1,-1,1,55.1309999999994,"bccM_H",35,11001
"519",1,6,1,-1,1,55.1309999999994,"bccH_L",0,11001
"520",1,6,1,-1,1,55.1309999999994,"bccH_M",50,11001
"521",1,6,1,-1,1,55.1309999999994,"bccH_H",50,11001
"522",1,6,1,-1,22,57.4870000000001,"bccL_L",95,11022
"523",1,6,1,-1,22,57.4870000000001,"bccL_M",5,11022
"524",1,6,1,-1,22,57.4870000000001,"bccL_H",0,11022
"525",1,6,1,-1,22,57.4870000000001,"bccM_L",35,11022
"526",1,6,1,-1,22,57.4870000000001,"bccM_M",60,11022
"527",1,6,1,-1,22,57.4870000000001,"bccM_H",5,11022
"528",1,6,1,-1,22,57.4870000000001,"bccH_L",30,11022
"529",1,6,1,-1,22,57.4870000000001,"bccH_M",60,11022
"530",1,6,1,-1,22,57.4870000000001,"bccH_H",10,11022
"531",1,6,1,-1,20,59.0309999999999,"bccL_L",50,11020
"532",1,6,1,-1,20,59.0309999999999,"bccL_M",40,11020
"533",1,6,1,-1,20,59.0309999999999,"bccL_H",10,11020
"534",1,6,1,-1,20,59.0309999999999,"bccM_L",25,11020
"535",1,6,1,-1,20,59.0309999999999,"bccM_M",50,11020
"536",1,6,1,-1,20,59.0309999999999,"bccM_H",25,11020
"537",1,6,1,-1,20,59.0309999999999,"bccH_L",10,11020
"538",1,6,1,-1,20,59.0309999999999,"bccH_M",65,11020
"539",1,6,1,-1,20,59.0309999999999,"bccH_H",25,11020
"540",1,6,1,-1,4,59.1709999999994,"bccL_L",100,11004
"541",1,6,1,-1,4,59.1709999999994,"bccL_M",0,11004
"542",1,6,1,-1,4,59.1709999999994,"bccL_H",0,11004
"543",1,6,1,-1,4,59.1709999999994,"bccM_L",20,11004
"544",1,6,1,-1,4,59.1709999999994,"bccM_M",65,11004
"545",1,6,1,-1,4,59.1709999999994,"bccM_H",15,11004
"546",1,6,1,-1,4,59.1709999999994,"bccH_L",30,11004
"547",1,6,1,-1,4,59.1709999999994,"bccH_M",35,11004
"548",1,6,1,-1,4,59.1709999999994,"bccH_H",35,11004
"549",1,6,1,-1,11,62.3379999999997,"bccL_L",0,11011
"550",1,6,1,-1,11,62.3379999999997,"bccL_M",50,11011
"551",1,6,1,-1,11,62.3379999999997,"bccL_H",50,11011
"552",1,6,1,-1,11,62.3379999999997,"bccM_L",0,11011
"553",1,6,1,-1,11,62.3379999999997,"bccM_M",50,11011
"554",1,6,1,-1,11,62.3379999999997,"bccM_H",50,11011
"555",1,6,1,-1,11,62.3379999999997,"bccH_L",0,11011
"556",1,6,1,-1,11,62.3379999999997,"bccH_M",50,11011
"557",1,6,1,-1,11,62.3379999999997,"bccH_H",50,11011
"558",1,6,1,-1,6,76.3939999999993,"bccL_L",100,11006
"559",1,6,1,-1,6,76.3939999999993,"bccL_M",0,11006
"560",1,6,1,-1,6,76.3939999999993,"bccL_H",0,11006
"561",1,6,1,-1,6,76.3939999999993,"bccM_L",35,11006
"562",1,6,1,-1,6,76.3939999999993,"bccM_M",65,11006
"563",1,6,1,-1,6,76.3939999999993,"bccM_H",0,11006
"564",1,6,1,-1,6,76.3939999999993,"bccH_L",25,11006
"565",1,6,1,-1,6,76.3939999999993,"bccH_M",40,11006
"566",1,6,1,-1,6,76.3939999999993,"bccH_H",35,11006
"567",1,6,1,-1,21,79.0149999999994,"bccL_L",80,11021
"568",1,6,1,-1,21,79.0149999999994,"bccL_M",10,11021
"569",1,6,1,-1,21,79.0149999999994,"bccL_H",10,11021
"570",1,6,1,-1,21,79.0149999999994,"bccM_L",35,11021
"571",1,6,1,-1,21,79.0149999999994,"bccM_M",65,11021
"572",1,6,1,-1,21,79.0149999999994,"bccM_H",0,11021
"573",1,6,1,-1,21,79.0149999999994,"bccH_L",20,11021
"574",1,6,1,-1,21,79.0149999999994,"bccH_M",10,11021
"575",1,6,1,-1,21,79.0149999999994,"bccH_H",70,11021
"576",1,6,1,-1,18,82.4160000000002,"bccL_L",30,11018
"577",1,6,1,-1,18,82.4160000000002,"bccL_M",40,11018
"578",1,6,1,-1,18,82.4160000000002,"bccL_H",30,11018
"579",1,6,1,-1,18,82.4160000000002,"bccM_L",30,11018
"580",1,6,1,-1,18,82.4160000000002,"bccM_M",40,11018
"581",1,6,1,-1,18,82.4160000000002,"bccM_H",30,11018
"582",1,6,1,-1,18,82.4160000000002,"bccH_L",30,11018
"583",1,6,1,-1,18,82.4160000000002,"bccH_M",40,11018
"584",1,6,1,-1,18,82.4160000000002,"bccH_H",30,11018
"585",1,6,1,-1,13,84.1629999999996,"bccL_L",55,11013
"586",1,6,1,-1,13,84.1629999999996,"bccL_M",35,11013
"587",1,6,1,-1,13,84.1629999999996,"bccL_H",10,11013
"588",1,6,1,-1,13,84.1629999999996,"bccM_L",55,11013
"589",1,6,1,-1,13,84.1629999999996,"bccM_M",40,11013
"590",1,6,1,-1,13,84.1629999999996,"bccM_H",5,11013
"591",1,6,1,-1,13,84.1629999999996,"bccH_L",60,11013
"592",1,6,1,-1,13,84.1629999999996,"bccH_M",20,11013
"593",1,6,1,-1,13,84.1629999999996,"bccH_H",20,11013
"594",1,6,1,-1,15,85.5039999999999,"bccL_L",60,11015
"595",1,6,1,-1,15,85.5039999999999,"bccL_M",25,11015
"596",1,6,1,-1,15,85.5039999999999,"bccL_H",15,11015
"597",1,6,1,-1,15,85.5039999999999,"bccM_L",50,11015
"598",1,6,1,-1,15,85.5039999999999,"bccM_M",25,11015
"599",1,6,1,-1,15,85.5039999999999,"bccM_H",25,11015
"600",1,6,1,-1,15,85.5039999999999,"bccH_L",40,11015
"601",1,6,1,-1,15,85.5039999999999,"bccH_M",25,11015
"602",1,6,1,-1,15,85.5039999999999,"bccH_H",35,11015
"603",1,6,1,-1,3,110.324,"bccL_L",65,11003
"604",1,6,1,-1,3,110.324,"bccL_M",35,11003
"605",1,6,1,-1,3,110.324,"bccL_H",0,11003
"606",1,6,1,-1,3,110.324,"bccM_L",20,11003
"607",1,6,1,-1,3,110.324,"bccM_M",55,11003
"608",1,6,1,-1,3,110.324,"bccM_H",25,11003
"609",1,6,1,-1,3,110.324,"bccH_L",0,11003
"610",1,6,1,-1,3,110.324,"bccH_M",55,11003
"611",1,6,1,-1,3,110.324,"bccH_H",45,11003
"612",1,6,1,-1,5,116.065,"bccL_L",40,11005
"613",1,6,1,-1,5,116.065,"bccL_M",50,11005
"614",1,6,1,-1,5,116.065,"bccL_H",10,11005
"615",1,6,1,-1,5,116.065,"bccM_L",10,11005
"616",1,6,1,-1,5,116.065,"bccM_M",15,11005
"617",1,6,1,-1,5,116.065,"bccM_H",75,11005
"618",1,6,1,-1,5,116.065,"bccH_L",15,11005
"619",1,6,1,-1,5,116.065,"bccH_M",55,11005
"620",1,6,1,-1,5,116.065,"bccH_H",30,11005
"621",1,6,1,-1,19,130.713,"bccL_L",20,11019
"622",1,6,1,-1,19,130.713,"bccL_M",55,11019
"623",1,6,1,-1,19,130.713,"bccL_H",25,11019
"624",1,6,1,-1,19,130.713,"bccM_L",30,11019
"625",1,6,1,-1,19,130.713,"bccM_M",50,11019
"626",1,6,1,-1,19,130.713,"bccM_H",20,11019
"627",1,6,1,-1,19,130.713,"bccH_L",0,11019
"628",1,6,1,-1,19,130.713,"bccH_M",25,11019
"629",1,6,1,-1,19,130.713,"bccH_H",75,11019
"630",1,7,1,-1,1,4.44600000000082,"uc",50,11001
"631",1,7,1,-1,22,4.53999999999996,"uc",0,11022
"632",1,7,1,-1,11,5.14800000000014,"uc",100,11011
"633",1,7,1,-1,1,5.22600000000057,"send",1,11001
"634",1,7,1,-1,14,5.36700000000019,"uc",50,11014
"635",1,7,1,-1,9,5.53800000000047,"uc",100,11009
"636",1,7,1,-1,22,5.61599999999998,"send",1,11022
"637",1,7,1,-1,5,5.71000000000004,"uc",50,11005
"638",1,7,1,-1,15,5.80300000000079,"uc",50,11015
"639",1,7,1,-1,13,5.92800000000079,"uc",100,11013
"640",1,7,1,-1,14,6.27100000000064,"send",1,11014
"641",1,7,1,-1,11,6.67700000000059,"send",1,11011
"642",1,7,1,-1,1,6.75500000000011,"confirm",1,11001
"643",1,7,1,-1,15,6.84900000000016,"send",1,11015
"644",1,7,1,-1,20,6.92700000000059,"uc",100,11020
"645",1,7,1,-1,8,7.00500000000011,"uc",50,11008
"646",1,7,1,-1,9,7.11400000000049,"send",1,11009
"647",1,7,1,-1,22,7.25400000000081,"confirm",1,11022
"648",1,7,1,-1,13,7.33200000000033,"send",1,11013
"649",1,7,1,-1,14,7.47299999999996,"confirm",1,11014
"650",1,7,1,-1,17,7.55100000000039,"uc",100,11017
"651",1,7,1,-1,4,7.62900000000081,"uc",100,11004
"652",1,7,1,-1,5,7.84700000000066,"send",1,11005
"653",1,7,1,-1,20,8.00300000000061,"send",1,11020
"654",1,7,1,-1,7,8.08100000000013,"uc",100,11007
"655",1,7,1,-1,16,8.08100000000013,"uc",50,11016
"656",1,7,1,-1,8,8.12800000000061,"send",1,11008
"657",1,7,1,-1,17,8.25300000000061,"send",1,11017
"658",1,7,1,-1,15,8.26800000000003,"confirm",1,11015
"659",1,7,1,-1,4,8.37700000000041,"send",1,11004
"660",1,7,1,-1,11,8.39300000000003,"confirm",1,11011
"661",1,7,1,-1,9,8.53300000000036,"confirm",1,11009
"662",1,7,1,-1,13,8.79899999999998,"confirm",1,11013
"663",1,7,1,-1,10,9.11100000000079,"uc",50,11010
"664",1,7,1,-1,7,9.18900000000031,"send",1,11007
"665",1,7,1,-1,16,9.23500000000058,"send",1,11016
"666",1,7,1,-1,17,9.70300000000043,"confirm",1,11017
"667",1,7,1,-1,8,9.71900000000005,"confirm",1,11008
"668",1,7,1,-1,10,9.96900000000005,"send",1,11010
"669",1,7,1,-1,4,10.0620000000008,"confirm",1,11004
"670",1,7,1,-1,5,10.1090000000004,"confirm",1,11005
"671",1,7,1,-1,19,10.156,"uc",100,11019
"672",1,7,1,-1,20,10.2030000000004,"confirm",1,11020
"673",1,7,1,-1,3,10.8420000000005,"uc",0,11003
"674",1,7,1,-1,16,11.4350000000004,"confirm",1,11016
"675",1,7,1,-1,10,11.6220000000003,"confirm",1,11010
"676",1,7,1,-1,12,11.7940000000008,"uc",100,11012
"677",1,7,1,-1,19,11.9340000000002,"send",1,11019
"678",1,7,1,-1,7,12.0120000000006,"confirm",1,11007
"679",1,7,1,-1,3,12.3550000000005,"send",1,11003
"680",1,7,1,-1,12,13.0570000000007,"send",1,11012
"681",1,7,1,-1,21,13.1820000000007,"uc",0,11021
"682",1,7,1,-1,19,13.7280000000001,"confirm",1,11019
"683",1,7,1,-1,21,13.8220000000001,"send",1,11021
"684",1,7,1,-1,12,14.5860000000002,"confirm",1,11012
"685",1,7,1,-1,21,14.7890000000007,"confirm",1,11021
"686",1,7,1,-1,6,15.21,"uc",100,11006
"687",1,7,1,-1,18,15.7719999999999,"uc",0,11018
"688",1,7,1,-1,2,15.9280000000008,"uc",50,11002
"689",1,7,1,-1,2,16.973,"send",1,11002
"690",1,7,1,-1,3,17.1290000000008,"confirm",1,11003
"691",1,7,1,-1,6,17.1760000000004,"send",1,11006
"692",1,7,1,-1,18,17.1910000000007,"send",1,11018
"693",1,7,1,-1,18,18.6730000000007,"confirm",1,11018
"694",1,7,1,-1,2,18.8290000000006,"confirm",1,11002
"695",1,7,1,-1,6,22.8389999999999,"confirm",1,11006
"696",1,8,1,-1,18,1.4350000000004,"ccH",0,11018
"697",1,8,1,-1,6,1.90300000000025,"ccL",0,11006
"698",1,8,1,-1,7,2.35500000000047,"ccL",0,11007
"699",1,8,1,-1,18,2.43299999999999,"ccM",0,11018
"700",1,8,1,-1,14,2.44900000000052,"ccL",100,11014
"701",1,8,1,-1,9,2.52700000000004,"ccL",0,11009
"702",1,8,1,-1,14,2.91700000000037,"ccM",50,11014
"703",1,8,1,-1,7,3.0570000000007,"ccM",50,11007
"704",1,8,1,-1,18,3.07300000000032,"ccL",0,11018
"705",1,8,1,-1,9,3.32200000000012,"ccM",50,11009
"706",1,8,1,-1,16,3.40000000000055,"ccL",0,11016
"707",1,8,1,-1,17,3.4320000000007,"ccL",0,11017
"708",1,8,1,-1,20,3.44700000000012,"ccL",50,11020
"709",1,8,1,-1,5,3.44700000000012,"ccL",50,11005
"710",1,8,1,-1,14,3.4940000000006,"ccH",100,11014
"711",1,8,1,-1,12,3.66600000000017,"ccL",0,11012
"712",1,8,1,-1,2,3.7440000000006,"ccM",50,11002
"713",1,8,1,-1,6,3.7440000000006,"ccM",50,11006
"714",1,8,1,-1,10,3.79000000000087,"ccL",0,11010
"715",1,8,1,-1,1,4.07100000000082,"ccL",0,11001
"716",1,8,1,-1,14,4.14900000000034,"send",1,11014
"717",1,8,1,-1,9,4.16500000000087,"ccH",100,11009
"718",1,8,1,-1,20,4.27400000000034,"ccM",50,11020
"719",1,8,1,-1,10,4.35200000000077,"ccM",50,11010
"720",1,8,1,-1,16,4.36800000000039,"ccM",50,11016
"721",1,8,1,-1,8,4.41400000000067,"ccL",0,11008
"722",1,8,1,-1,6,4.41400000000067,"ccH",100,11006
"723",1,8,1,-1,5,4.43000000000029,"ccM",100,11005
"724",1,8,1,-1,17,4.61700000000019,"ccM",50,11017
"725",1,8,1,-1,2,4.71100000000024,"ccL",0,11002
"726",1,8,1,-1,12,4.77300000000014,"ccM",50,11012
"727",1,8,1,-1,20,4.88200000000052,"ccH",50,11020
"728",1,8,1,-1,7,4.96000000000004,"ccH",100,11007
"729",1,8,1,-1,16,5.00700000000052,"ccH",100,11016
"730",1,8,1,-1,9,5.00700000000052,"send",1,11009
"731",1,8,1,-1,1,5.05400000000009,"ccM",50,11001
"732",1,8,1,-1,4,5.10100000000057,"ccL",0,11004
"733",1,8,1,-1,10,5.14800000000014,"ccH",50,11010
"734",1,8,1,-1,8,5.17900000000009,"ccM",50,11008
"735",1,8,1,-1,14,5.19400000000041,"confirm",1,11014
"736",1,8,1,-1,5,5.53800000000047,"ccH",100,11005
"737",1,8,1,-1,22,5.61599999999998,"ccL",0,11022
"738",1,8,1,-1,4,5.72500000000036,"ccM",0,11004
"739",1,8,1,-1,17,5.78700000000026,"ccH",100,11017
"740",1,8,1,-1,7,5.83400000000074,"send",1,11007
"741",1,8,1,-1,2,5.85000000000036,"ccH",100,11002
"742",1,8,1,-1,12,5.92800000000079,"ccH",100,11012
"743",1,8,1,-1,10,5.92800000000079,"send",1,11010
"744",1,8,1,-1,1,6.02100000000064,"ccH",100,11001
"745",1,8,1,-1,13,6.09900000000016,"ccL",0,11013
"746",1,8,1,-1,4,6.36400000000049,"ccH",0,11004
"747",1,8,1,-1,20,6.38000000000011,"send",1,11020
"748",1,8,1,-1,5,6.48900000000049,"send",1,11005
"749",1,8,1,-1,22,6.50500000000011,"ccM",50,11022
"750",1,8,1,-1,9,6.56700000000001,"confirm",1,11009
"751",1,8,1,-1,8,6.63000000000011,"ccH",50,11008
"752",1,8,1,-1,13,6.67600000000039,"ccM",50,11013
"753",1,8,1,-1,17,6.72300000000087,"send",1,11017
"754",1,8,1,-1,2,6.77000000000044,"send",1,11002
"755",1,8,1,-1,16,6.81700000000001,"send",1,11016
"756",1,8,1,-1,22,7.05100000000039,"ccH",50,11022
"757",1,8,1,-1,4,7.11300000000028,"send",1,11004
"758",1,8,1,-1,1,7.16000000000076,"send",1,11001
"759",1,8,1,-1,13,7.26900000000023,"ccH",100,11013
"760",1,8,1,-1,10,7.33200000000033,"confirm",1,11010
"761",1,8,1,-1,12,7.37800000000061,"send",1,11012
"762",1,8,1,-1,21,7.50300000000061,"ccL",0,11021
"763",1,8,1,-1,8,7.58100000000013,"send",1,11008
"764",1,8,1,-1,15,7.62800000000061,"ccL",0,11015
"765",1,8,1,-1,3,7.75300000000061,"ccL",50,11003
"766",1,8,1,-1,7,7.83100000000013,"confirm",1,11007
"767",1,8,1,-1,21,7.89300000000003,"ccM",0,11021
"768",1,8,1,-1,13,7.94000000000051,"send",1,11013
"769",1,8,1,-1,16,8.09600000000046,"confirm",1,11016
"770",1,8,1,-1,21,8.28300000000036,"ccH",0,11021
"771",1,8,1,-1,17,8.37700000000041,"confirm",1,11017
"772",1,8,1,-1,12,8.50200000000041,"confirm",1,11012
"773",1,8,1,-1,2,8.58000000000084,"confirm",1,11002
"774",1,8,1,-1,1,8.59500000000025,"confirm",1,11001
"775",1,8,1,-1,20,8.61100000000079,"confirm",1,11020
"776",1,8,1,-1,4,8.6260000000002,"confirm",1,11004
"777",1,8,1,-1,21,9.17200000000048,"send",1,11021
"778",1,8,1,-1,13,9.25,"confirm",1,11013
"779",1,8,1,-1,5,9.3130000000001,"confirm",1,11005
"780",1,8,1,-1,8,9.42200000000048,"confirm",1,11008
"781",1,8,1,-1,15,9.76500000000033,"ccM",50,11015
"782",1,8,1,-1,21,10.2800000000006,"confirm",1,11021
"783",1,8,1,-1,11,11.201,"ccH",100,11011
"784",1,8,1,-1,15,11.3570000000009,"ccH",50,11015
"785",1,8,1,-1,6,12.0740000000005,"ccH",50,11006
"786",1,8,1,-1,15,12.0900000000002,"send",1,11015
"787",1,8,1,-1,11,12.2930000000006,"ccM",100,11011
"788",1,8,1,-1,11,12.8070000000007,"ccL",100,11011
"789",1,8,1,-1,22,13.1660000000002,"send",1,11022
"790",1,8,1,-1,15,13.1660000000002,"confirm",1,11015
"791",1,8,1,-1,3,13.3220000000001,"ccM",100,11003
"792",1,8,1,-1,11,13.634,"send",1,11011
"793",1,8,1,-1,22,14.7110000000002,"confirm",1,11022
"794",1,8,1,-1,3,14.8040000000001,"ccH",50,11003
"795",1,8,1,-1,18,14.8820000000005,"send",1,11018
"796",1,8,1,-1,11,15.1630000000005,"confirm",1,11011
"797",1,8,1,-1,18,16.1300000000001,"confirm",1,11018
"798",1,8,1,-1,3,16.2240000000002,"send",1,11003
"799",1,8,1,-1,19,18.2210000000005,"ccL",0,11019
"800",1,8,1,-1,3,18.8450000000003,"confirm",1,11003
"801",1,8,1,-1,19,22.0430000000006,"ccM",50,11019
"802",1,8,1,-1,19,23.0880000000007,"ccH",100,11019
"803",1,8,1,-1,19,23.8680000000004,"send",1,11019
"804",1,8,1,-1,19,25.6310000000003,"confirm",1,11019
"805",1,8,1,-1,6,49.951,"ccM",0,11006
"806",1,8,1,-1,6,51.0590000000002,"ccH",0,11006
"807",1,8,1,-1,6,52.1980000000003,"send",1,11006
"808",1,8,1,-1,6,53.96,"confirm",1,11006
"809",1,5,1,0,4,10.7480000000005,"buc_L",0,11004
"810",1,5,1,0,4,10.7480000000005,"buc_M",50,11004
"811",1,5,1,0,4,10.7480000000005,"buc_H",50,11004
"812",1,5,1,0,12,13.1660000000002,"buc_L",100,11012
"813",1,5,1,0,12,13.1660000000002,"buc_M",0,11012
"814",1,5,1,0,12,13.1660000000002,"buc_H",0,11012
"815",1,5,1,0,9,16.2080000000005,"buc_L",0,11009
"816",1,5,1,0,9,16.2080000000005,"buc_M",50,11009
"817",1,5,1,0,9,16.2080000000005,"buc_H",50,11009
"818",1,5,1,0,16,18.0800000000008,"buc_L",25,11016
"819",1,5,1,0,16,18.0800000000008,"buc_M",50,11016
"820",1,5,1,0,16,18.0800000000008,"buc_H",25,11016
"821",1,5,1,0,21,19.9210000000003,"buc_L",70,11021
"822",1,5,1,0,21,19.9210000000003,"buc_M",20,11021
"823",1,5,1,0,21,19.9210000000003,"buc_H",10,11021
"824",1,5,1,0,1,20.2950000000001,"buc_L",0,11001
"825",1,5,1,0,1,20.2950000000001,"buc_M",50,11001
"826",1,5,1,0,1,20.2950000000001,"buc_H",50,11001
"827",1,5,1,0,13,21.0600000000004,"buc_L",35,11013
"828",1,5,1,0,13,21.0600000000004,"buc_M",45,11013
"829",1,5,1,0,13,21.0600000000004,"buc_H",20,11013
"830",1,5,1,0,14,22.4950000000008,"buc_L",60,11014
"831",1,5,1,0,14,22.4950000000008,"buc_M",20,11014
"832",1,5,1,0,14,22.4950000000008,"buc_H",20,11014
"833",1,5,1,0,7,23.3370000000004,"buc_L",25,11007
"834",1,5,1,0,7,23.3370000000004,"buc_M",30,11007
"835",1,5,1,0,7,23.3370000000004,"buc_H",45,11007
"836",1,5,1,0,20,23.5560000000005,"buc_L",30,11020
"837",1,5,1,0,20,23.5560000000005,"buc_M",40,11020
"838",1,5,1,0,20,23.5560000000005,"buc_H",30,11020
"839",1,5,1,0,22,24.7570000000005,"buc_L",85,11022
"840",1,5,1,0,22,24.7570000000005,"buc_M",15,11022
"841",1,5,1,0,22,24.7570000000005,"buc_H",0,11022
"842",1,5,1,0,10,25.7400000000007,"buc_L",25,11010
"843",1,5,1,0,10,25.7400000000007,"buc_M",75,11010
"844",1,5,1,0,10,25.7400000000007,"buc_H",0,11010
"845",1,5,1,0,8,25.8800000000001,"buc_L",60,11008
"846",1,5,1,0,8,25.8800000000001,"buc_M",25,11008
"847",1,5,1,0,8,25.8800000000001,"buc_H",15,11008
"848",1,5,1,0,18,26.2080000000005,"buc_L",30,11018
"849",1,5,1,0,18,26.2080000000005,"buc_M",40,11018
"850",1,5,1,0,18,26.2080000000005,"buc_H",30,11018
"851",1,5,1,0,2,26.8470000000007,"buc_L",70,11002
"852",1,5,1,0,2,26.8470000000007,"buc_M",30,11002
"853",1,5,1,0,2,26.8470000000007,"buc_H",0,11002
"854",1,5,1,0,6,28.5010000000002,"buc_L",35,11006
"855",1,5,1,0,6,28.5010000000002,"buc_M",40,11006
"856",1,5,1,0,6,28.5010000000002,"buc_H",25,11006
"857",1,5,1,0,11,29.4990000000007,"buc_L",0,11011
"858",1,5,1,0,11,29.4990000000007,"buc_M",80,11011
"859",1,5,1,0,11,29.4990000000007,"buc_H",20,11011
"860",1,5,1,0,5,29.9670000000005,"buc_L",5,11005
"861",1,5,1,0,5,29.9670000000005,"buc_M",45,11005
"862",1,5,1,0,5,29.9670000000005,"buc_H",50,11005
"863",1,5,1,0,15,30.5450000000001,"buc_L",75,11015
"864",1,5,1,0,15,30.5450000000001,"buc_M",10,11015
"865",1,5,1,0,15,30.5450000000001,"buc_H",15,11015
"866",1,5,1,0,17,33.259,"buc_L",40,11017
"867",1,5,1,0,17,33.259,"buc_M",25,11017
"868",1,5,1,0,17,33.259,"buc_H",35,11017
"869",1,5,1,0,3,35.3810000000003,"buc_L",20,11003
"870",1,5,1,0,3,35.3810000000003,"buc_M",60,11003
"871",1,5,1,0,3,35.3810000000003,"buc_H",20,11003
"872",1,5,1,0,19,40.6540000000005,"buc_L",30,11019
"873",1,5,1,0,19,40.6540000000005,"buc_M",30,11019
"874",1,5,1,0,19,40.6540000000005,"buc_H",40,11019
"875",1,6,1,0,14,10.8419999999996,"bccL_L",100,11014
"876",1,6,1,0,14,10.8419999999996,"bccL_M",0,11014
"877",1,6,1,0,14,10.8419999999996,"bccL_H",0,11014
"878",1,6,1,0,14,10.8419999999996,"bccM_L",100,11014
"879",1,6,1,0,14,10.8419999999996,"bccM_M",0,11014
"880",1,6,1,0,14,10.8419999999996,"bccM_H",0,11014
"881",1,6,1,0,14,10.8419999999996,"bccH_L",100,11014
"882",1,6,1,0,14,10.8419999999996,"bccH_M",0,11014
"883",1,6,1,0,14,10.8419999999996,"bccH_H",0,11014
"884",1,6,1,0,7,13.3689999999997,"bccL_L",100,11007
"885",1,6,1,0,7,13.3689999999997,"bccL_M",0,11007
"886",1,6,1,0,7,13.3689999999997,"bccL_H",0,11007
"887",1,6,1,0,7,13.3689999999997,"bccM_L",0,11007
"888",1,6,1,0,7,13.3689999999997,"bccM_M",100,11007
"889",1,6,1,0,7,13.3689999999997,"bccM_H",0,11007
"890",1,6,1,0,7,13.3689999999997,"bccH_L",0,11007
"891",1,6,1,0,7,13.3689999999997,"bccH_M",0,11007
"892",1,6,1,0,7,13.3689999999997,"bccH_H",100,11007
"893",1,6,1,0,2,17.6120000000001,"bccL_L",100,11002
"894",1,6,1,0,2,17.6120000000001,"bccL_M",0,11002
"895",1,6,1,0,2,17.6120000000001,"bccL_H",0,11002
"896",1,6,1,0,2,17.6120000000001,"bccM_L",0,11002
"897",1,6,1,0,2,17.6120000000001,"bccM_M",100,11002
"898",1,6,1,0,2,17.6120000000001,"bccM_H",0,11002
"899",1,6,1,0,2,17.6120000000001,"bccH_L",0,11002
"900",1,6,1,0,2,17.6120000000001,"bccH_M",0,11002
"901",1,6,1,0,2,17.6120000000001,"bccH_H",100,11002
"902",1,6,1,0,9,20.482,"bccL_L",100,11009
"903",1,6,1,0,9,20.482,"bccL_M",0,11009
"904",1,6,1,0,9,20.482,"bccL_H",0,11009
"905",1,6,1,0,9,20.482,"bccM_L",0,11009
"906",1,6,1,0,9,20.482,"bccM_M",100,11009
"907",1,6,1,0,9,20.482,"bccM_H",0,11009
"908",1,6,1,0,9,20.482,"bccH_L",30,11009
"909",1,6,1,0,9,20.482,"bccH_M",35,11009
"910",1,6,1,0,9,20.482,"bccH_H",35,11009
"911",1,6,1,0,19,24.7419999999993,"bccL_L",0,11019
"912",1,6,1,0,19,24.7419999999993,"bccL_M",0,11019
"913",1,6,1,0,19,24.7419999999993,"bccL_H",100,11019
"914",1,6,1,0,19,24.7419999999993,"bccM_L",0,11019
"915",1,6,1,0,19,24.7419999999993,"bccM_M",100,11019
"916",1,6,1,0,19,24.7419999999993,"bccM_H",0,11019
"917",1,6,1,0,19,24.7419999999993,"bccH_L",100,11019
"918",1,6,1,0,19,24.7419999999993,"bccH_M",0,11019
"919",1,6,1,0,19,24.7419999999993,"bccH_H",0,11019
"920",1,6,1,0,10,26.2539999999999,"bccL_L",100,11010
"921",1,6,1,0,10,26.2539999999999,"bccL_M",0,11010
"922",1,6,1,0,10,26.2539999999999,"bccL_H",0,11010
"923",1,6,1,0,10,26.2539999999999,"bccM_L",50,11010
"924",1,6,1,0,10,26.2539999999999,"bccM_M",50,11010
"925",1,6,1,0,10,26.2539999999999,"bccM_H",0,11010
"926",1,6,1,0,10,26.2539999999999,"bccH_L",35,11010
"927",1,6,1,0,10,26.2539999999999,"bccH_M",60,11010
"928",1,6,1,0,10,26.2539999999999,"bccH_H",5,11010
"929",1,6,1,0,17,36.9569999999994,"bccL_L",100,11017
"930",1,6,1,0,17,36.9569999999994,"bccL_M",0,11017
"931",1,6,1,0,17,36.9569999999994,"bccL_H",0,11017
"932",1,6,1,0,17,36.9569999999994,"bccM_L",50,11017
"933",1,6,1,0,17,36.9569999999994,"bccM_M",50,11017
"934",1,6,1,0,17,36.9569999999994,"bccM_H",0,11017
"935",1,6,1,0,17,36.9569999999994,"bccH_L",50,11017
"936",1,6,1,0,17,36.9569999999994,"bccH_M",0,11017
"937",1,6,1,0,17,36.9569999999994,"bccH_H",50,11017
"938",1,6,1,0,1,37.2209999999995,"bccL_L",100,11001
"939",1,6,1,0,1,37.2209999999995,"bccL_M",0,11001
"940",1,6,1,0,1,37.2209999999995,"bccL_H",0,11001
"941",1,6,1,0,1,37.2209999999995,"bccM_L",0,11001
"942",1,6,1,0,1,37.2209999999995,"bccM_M",50,11001
"943",1,6,1,0,1,37.2209999999995,"bccM_H",50,11001
"944",1,6,1,0,1,37.2209999999995,"bccH_L",0,11001
"945",1,6,1,0,1,37.2209999999995,"bccH_M",50,11001
"946",1,6,1,0,1,37.2209999999995,"bccH_H",50,11001
"947",1,6,1,0,12,37.8299999999999,"bccL_L",0,11012
"948",1,6,1,0,12,37.8299999999999,"bccL_M",0,11012
"949",1,6,1,0,12,37.8299999999999,"bccL_H",100,11012
"950",1,6,1,0,12,37.8299999999999,"bccM_L",0,11012
"951",1,6,1,0,12,37.8299999999999,"bccM_M",0,11012
"952",1,6,1,0,12,37.8299999999999,"bccM_H",100,11012
"953",1,6,1,0,12,37.8299999999999,"bccH_L",0,11012
"954",1,6,1,0,12,37.8299999999999,"bccH_M",0,11012
"955",1,6,1,0,12,37.8299999999999,"bccH_H",100,11012
"956",1,6,1,0,4,39.7950000000001,"bccL_L",100,11004
"957",1,6,1,0,4,39.7950000000001,"bccL_M",0,11004
"958",1,6,1,0,4,39.7950000000001,"bccL_H",0,11004
"959",1,6,1,0,4,39.7950000000001,"bccM_L",40,11004
"960",1,6,1,0,4,39.7950000000001,"bccM_M",60,11004
"961",1,6,1,0,4,39.7950000000001,"bccM_H",0,11004
"962",1,6,1,0,4,39.7950000000001,"bccH_L",30,11004
"963",1,6,1,0,4,39.7950000000001,"bccH_M",40,11004
"964",1,6,1,0,4,39.7950000000001,"bccH_H",30,11004
"965",1,6,1,0,18,46.5039999999999,"bccL_L",40,11018
"966",1,6,1,0,18,46.5039999999999,"bccL_M",30,11018
"967",1,6,1,0,18,46.5039999999999,"bccL_H",30,11018
"968",1,6,1,0,18,46.5039999999999,"bccM_L",30,11018
"969",1,6,1,0,18,46.5039999999999,"bccM_M",40,11018
"970",1,6,1,0,18,46.5039999999999,"bccM_H",30,11018
"971",1,6,1,0,18,46.5039999999999,"bccH_L",30,11018
"972",1,6,1,0,18,46.5039999999999,"bccH_M",30,11018
"973",1,6,1,0,18,46.5039999999999,"bccH_H",40,11018
"974",1,6,1,0,8,47.6890000000003,"bccL_L",60,11008
"975",1,6,1,0,8,47.6890000000003,"bccL_M",20,11008
"976",1,6,1,0,8,47.6890000000003,"bccL_H",20,11008
"977",1,6,1,0,8,47.6890000000003,"bccM_L",25,11008
"978",1,6,1,0,8,47.6890000000003,"bccM_M",50,11008
"979",1,6,1,0,8,47.6890000000003,"bccM_H",25,11008
"980",1,6,1,0,8,47.6890000000003,"bccH_L",50,11008
"981",1,6,1,0,8,47.6890000000003,"bccH_M",25,11008
"982",1,6,1,0,8,47.6890000000003,"bccH_H",25,11008
"983",1,6,1,0,22,50.1079999999993,"bccL_L",80,11022
"984",1,6,1,0,22,50.1079999999993,"bccL_M",20,11022
"985",1,6,1,0,22,50.1079999999993,"bccL_H",0,11022
"986",1,6,1,0,22,50.1079999999993,"bccM_L",20,11022
"987",1,6,1,0,22,50.1079999999993,"bccM_M",75,11022
"988",1,6,1,0,22,50.1079999999993,"bccM_H",5,11022
"989",1,6,1,0,22,50.1079999999993,"bccH_L",10,11022
"990",1,6,1,0,22,50.1079999999993,"bccH_M",80,11022
"991",1,6,1,0,22,50.1079999999993,"bccH_H",10,11022
"992",1,6,1,0,13,50.9029999999993,"bccL_L",80,11013
"993",1,6,1,0,13,50.9029999999993,"bccL_M",15,11013
"994",1,6,1,0,13,50.9029999999993,"bccL_H",5,11013
"995",1,6,1,0,13,50.9029999999993,"bccM_L",10,11013
"996",1,6,1,0,13,50.9029999999993,"bccM_M",55,11013
"997",1,6,1,0,13,50.9029999999993,"bccM_H",35,11013
"998",1,6,1,0,13,50.9029999999993,"bccH_L",10,11013
"999",1,6,1,0,13,50.9029999999993,"bccH_M",25,11013
"1000",1,6,1,0,13,50.9029999999993,"bccH_H",65,11013
"1001",1,6,1,0,20,52.4939999999997,"bccL_L",75,11020
"1002",1,6,1,0,20,52.4939999999997,"bccL_M",15,11020
"1003",1,6,1,0,20,52.4939999999997,"bccL_H",10,11020
"1004",1,6,1,0,20,52.4939999999997,"bccM_L",25,11020
"1005",1,6,1,0,20,52.4939999999997,"bccM_M",55,11020
"1006",1,6,1,0,20,52.4939999999997,"bccM_H",20,11020
"1007",1,6,1,0,20,52.4939999999997,"bccH_L",65,11020
"1008",1,6,1,0,20,52.4939999999997,"bccH_M",20,11020
"1009",1,6,1,0,20,52.4939999999997,"bccH_H",15,11020
"1010",1,6,1,0,16,54.1479999999992,"bccL_L",25,11016
"1011",1,6,1,0,16,54.1479999999992,"bccL_M",50,11016
"1012",1,6,1,0,16,54.1479999999992,"bccL_H",25,11016
"1013",1,6,1,0,16,54.1479999999992,"bccM_L",25,11016
"1014",1,6,1,0,16,54.1479999999992,"bccM_M",55,11016
"1015",1,6,1,0,16,54.1479999999992,"bccM_H",20,11016
"1016",1,6,1,0,16,54.1479999999992,"bccH_L",5,11016
"1017",1,6,1,0,16,54.1479999999992,"bccH_M",45,11016
"1018",1,6,1,0,16,54.1479999999992,"bccH_H",50,11016
"1019",1,6,1,0,11,59.0619999999999,"bccL_L",0,11011
"1020",1,6,1,0,11,59.0619999999999,"bccL_M",50,11011
"1021",1,6,1,0,11,59.0619999999999,"bccL_H",50,11011
"1022",1,6,1,0,11,59.0619999999999,"bccM_L",0,11011
"1023",1,6,1,0,11,59.0619999999999,"bccM_M",50,11011
"1024",1,6,1,0,11,59.0619999999999,"bccM_H",50,11011
"1025",1,6,1,0,11,59.0619999999999,"bccH_L",0,11011
"1026",1,6,1,0,11,59.0619999999999,"bccH_M",75,11011
"1027",1,6,1,0,11,59.0619999999999,"bccH_H",25,11011
"1028",1,6,1,0,21,60.9339999999993,"bccL_L",90,11021
"1029",1,6,1,0,21,60.9339999999993,"bccL_M",5,11021
"1030",1,6,1,0,21,60.9339999999993,"bccL_H",5,11021
"1031",1,6,1,0,21,60.9339999999993,"bccM_L",40,11021
"1032",1,6,1,0,21,60.9339999999993,"bccM_M",40,11021
"1033",1,6,1,0,21,60.9339999999993,"bccM_H",20,11021
"1034",1,6,1,0,21,60.9339999999993,"bccH_L",40,11021
"1035",1,6,1,0,21,60.9339999999993,"bccH_M",10,11021
"1036",1,6,1,0,21,60.9339999999993,"bccH_H",50,11021
"1037",1,6,1,0,3,61.1049999999996,"bccL_L",75,11003
"1038",1,6,1,0,3,61.1049999999996,"bccL_M",25,11003
"1039",1,6,1,0,3,61.1049999999996,"bccL_H",0,11003
"1040",1,6,1,0,3,61.1049999999996,"bccM_L",30,11003
"1041",1,6,1,0,3,61.1049999999996,"bccM_M",50,11003
"1042",1,6,1,0,3,61.1049999999996,"bccM_H",20,11003
"1043",1,6,1,0,3,61.1049999999996,"bccH_L",0,11003
"1044",1,6,1,0,3,61.1049999999996,"bccH_M",35,11003
"1045",1,6,1,0,3,61.1049999999996,"bccH_H",65,11003
"1046",1,6,1,0,15,61.277,"bccL_L",75,11015
"1047",1,6,1,0,15,61.277,"bccL_M",10,11015
"1048",1,6,1,0,15,61.277,"bccL_H",15,11015
"1049",1,6,1,0,15,61.277,"bccM_L",25,11015
"1050",1,6,1,0,15,61.277,"bccM_M",75,11015
"1051",1,6,1,0,15,61.277,"bccM_H",0,11015
"1052",1,6,1,0,15,61.277,"bccH_L",50,11015
"1053",1,6,1,0,15,61.277,"bccH_M",25,11015
"1054",1,6,1,0,15,61.277,"bccH_H",25,11015
"1055",1,6,1,0,6,74.1000000000004,"bccL_L",100,11006
"1056",1,6,1,0,6,74.1000000000004,"bccL_M",0,11006
"1057",1,6,1,0,6,74.1000000000004,"bccL_H",0,11006
"1058",1,6,1,0,6,74.1000000000004,"bccM_L",50,11006
"1059",1,6,1,0,6,74.1000000000004,"bccM_M",50,11006
"1060",1,6,1,0,6,74.1000000000004,"bccM_H",0,11006
"1061",1,6,1,0,6,74.1000000000004,"bccH_L",25,11006
"1062",1,6,1,0,6,74.1000000000004,"bccH_M",40,11006
"1063",1,6,1,0,6,74.1000000000004,"bccH_H",35,11006
"1064",1,6,1,0,5,77.4070000000002,"bccL_L",30,11005
"1065",1,6,1,0,5,77.4070000000002,"bccL_M",65,11005
"1066",1,6,1,0,5,77.4070000000002,"bccL_H",5,11005
"1067",1,6,1,0,5,77.4070000000002,"bccM_L",5,11005
"1068",1,6,1,0,5,77.4070000000002,"bccM_M",45,11005
"1069",1,6,1,0,5,77.4070000000002,"bccM_H",50,11005
"1070",1,6,1,0,5,77.4070000000002,"bccH_L",5,11005
"1071",1,6,1,0,5,77.4070000000002,"bccH_M",20,11005
"1072",1,6,1,0,5,77.4070000000002,"bccH_H",75,11005
"1073",1,7,1,0,17,3.16700000000037,"uc",100,11017
"1074",1,7,1,0,4,3.18199999999979,"uc",100,11004
"1075",1,7,1,0,7,3.47900000000027,"uc",100,11007
"1076",1,7,1,0,2,3.57200000000012,"uc",100,11002
"1077",1,7,1,0,12,3.6190000000006,"uc",100,11012
"1078",1,7,1,0,15,3.79100000000017,"uc",50,11015
"1079",1,7,1,0,9,4.08700000000044,"uc",100,11009
"1080",1,7,1,0,1,4.27400000000034,"uc",50,11001
"1081",1,7,1,0,4,4.28999999999996,"send",1,11004
"1082",1,7,1,0,7,4.36800000000039,"send",1,11007
"1083",1,7,1,0,12,4.71100000000024,"send",1,11012
"1084",1,7,1,0,2,4.96100000000024,"send",1,11002
"1085",1,7,1,0,10,5.05400000000009,"uc",50,11010
"1086",1,7,1,0,5,5.07000000000062,"uc",100,11005
"1087",1,7,1,0,15,5.14800000000014,"send",1,11015
"1088",1,7,1,0,9,5.22600000000057,"send",1,11009
"1089",1,7,1,0,17,5.27300000000014,"send",1,11017
"1090",1,7,1,0,4,5.46000000000004,"confirm",1,11004
"1091",1,7,1,0,7,5.55299999999988,"confirm",1,11007
"1092",1,7,1,0,1,5.58500000000004,"send",1,11001
"1093",1,7,1,0,5,5.75600000000031,"send",1,11005
"1094",1,7,1,0,12,5.85000000000036,"confirm",1,11012
"1095",1,7,1,0,21,5.97500000000036,"uc",100,11021
"1096",1,7,1,0,8,6.05299999999988,"uc",50,11008
"1097",1,7,1,0,18,6.16200000000026,"uc",50,11018
"1098",1,7,1,0,2,6.27099999999973,"confirm",1,11002
"1099",1,7,1,0,16,6.34900000000016,"uc",50,11016
"1100",1,7,1,0,13,6.36499999999978,"uc",100,11013
"1101",1,7,1,0,9,6.59900000000016,"confirm",1,11009
"1102",1,7,1,0,15,6.61400000000049,"confirm",1,11015
"1103",1,7,1,0,5,6.78600000000006,"confirm",1,11005
"1104",1,7,1,0,21,6.80100000000039,"send",1,11021
"1105",1,7,1,0,20,6.87899999999991,"uc",100,11020
"1106",1,7,1,0,17,6.92600000000039,"confirm",1,11017
"1107",1,7,1,0,1,7.09799999999996,"confirm",1,11001
"1108",1,7,1,0,3,7.26900000000023,"uc",50,11003
"1109",1,7,1,0,8,7.34699999999975,"send",1,11008
"1110",1,7,1,0,13,7.45700000000033,"send",1,11013
"1111",1,7,1,0,18,7.53499999999985,"send",1,11018
"1112",1,7,1,0,20,7.70600000000013,"send",1,11020
"1113",1,7,1,0,10,7.78400000000056,"send",1,11010
"1114",1,7,1,0,16,7.83100000000013,"send",1,11016
"1115",1,7,1,0,22,7.86200000000008,"uc",50,11022
"1116",1,7,1,0,21,8.11200000000008,"confirm",1,11021
"1117",1,7,1,0,13,8.26800000000003,"confirm",1,11013
"1118",1,7,1,0,20,8.84500000000025,"confirm",1,11020
"1119",1,7,1,0,10,8.86099999999988,"confirm",1,11010
"1120",1,7,1,0,3,8.8760000000002,"uc",100,11003
"1121",1,7,1,0,22,8.93900000000031,"send",1,11022
"1122",1,7,1,0,16,9.0630000000001,"confirm",1,11016
"1123",1,7,1,0,14,9.15700000000015,"uc",50,11014
"1124",1,7,1,0,18,9.1880000000001,"confirm",1,11018
"1125",1,7,1,0,14,9.85900000000038,"send",1,11014
"1126",1,7,1,0,3,9.9989999999998,"send",1,11003
"1127",1,7,1,0,22,10.0929999999999,"confirm",1,11022
"1128",1,7,1,0,8,10.3110000000006,"confirm",1,11008
"1129",1,7,1,0,14,11.0450000000001,"confirm",1,11014
"1130",1,7,1,0,6,11.3879999999999,"uc",100,11006
"1131",1,7,1,0,3,11.5129999999999,"confirm",1,11003
"1132",1,7,1,0,6,13.5560000000005,"send",1,11006
"1133",1,7,1,0,11,14.9450000000006,"uc",100,11011
"1134",1,7,1,0,19,15.5219999999999,"uc",50,11019
"1135",1,7,1,0,6,15.5380000000005,"confirm",1,11006
"1136",1,7,1,0,19,16.3180000000002,"send",1,11019
"1137",1,7,1,0,11,17.9710000000005,"send",1,11011
"1138",1,7,1,0,19,19.6400000000003,"confirm",1,11019
"1139",1,7,1,0,11,23.3530000000001,"confirm",1,11011
"1140",1,8,1,0,4,1.74699999999939,"ccH",0,11004
"1141",1,8,1,0,7,1.88699999999972,"ccL",0,11007
"1142",1,8,1,0,14,2.35499999999956,"ccL",100,11014
"1143",1,8,1,0,4,2.44899999999961,"ccM",0,11004
"1144",1,8,1,0,13,2.51099999999951,"ccL",0,11013
"1145",1,8,1,0,17,2.52699999999913,"ccL",0,11017
"1146",1,8,1,0,7,2.60499999999956,"ccM",50,11007
"1147",1,8,1,0,11,2.68299999999999,"ccL",100,11011
"1148",1,8,1,0,15,2.76099999999951,"ccL",0,11015
"1149",1,8,1,0,9,2.77699999999913,"ccL",50,11009
"1150",1,8,1,0,2,2.80799999999999,"ccL",0,11002
"1151",1,8,1,0,4,3.13499999999931,"ccL",0,11004
"1152",1,8,1,0,15,3.15099999999984,"ccM",0,11015
"1153",1,8,1,0,7,3.22899999999936,"ccH",100,11007
"1154",1,8,1,0,11,3.32299999999941,"ccM",100,11011
"1155",1,8,1,0,2,3.35399999999936,"ccM",50,11002
"1156",1,8,1,0,13,3.36899999999969,"ccM",50,11013
"1157",1,8,1,0,17,3.36899999999969,"ccM",50,11017
"1158",1,8,1,0,20,3.43199999999979,"ccL",100,11020
"1159",1,8,1,0,14,3.43199999999979,"ccM",100,11014
"1160",1,8,1,0,11,3.82199999999921,"ccH",100,11011
"1161",1,8,1,0,15,3.89999999999964,"ccH",0,11015
"1162",1,8,1,0,10,3.91499999999996,"ccL",0,11010
"1163",1,8,1,0,9,3.99299999999948,"ccL",0,11009
"1164",1,8,1,0,14,4.07099999999991,"ccH",100,11014
"1165",1,8,1,0,4,4.07099999999991,"send",1,11004
"1166",1,8,1,0,6,4.08699999999953,"ccL",0,11006
"1167",1,8,1,0,13,4.19599999999991,"ccH",100,11013
"1168",1,8,1,0,7,4.19599999999991,"send",1,11007
"1169",1,8,1,0,17,4.27399999999943,"ccH",100,11017
"1170",1,8,1,0,20,4.28999999999996,"ccM",50,11020
"1171",1,8,1,0,10,4.63299999999981,"ccM",50,11010
"1172",1,8,1,0,9,4.71099999999933,"ccM",50,11009
"1173",1,8,1,0,2,4.72699999999986,"ccH",100,11002
"1174",1,8,1,0,14,4.85099999999966,"send",1,11014
"1175",1,8,1,0,15,4.94499999999971,"send",1,11015
"1176",1,8,1,0,1,5.02299999999923,"ccL",0,11001
"1177",1,8,1,0,20,5.11699999999928,"ccH",0,11020
"1178",1,8,1,0,18,5.19499999999971,"ccL",0,11018
"1179",1,8,1,0,7,5.24099999999998,"confirm",1,11007
"1180",1,8,1,0,11,5.30399999999918,"send",1,11011
"1181",1,8,1,0,8,5.38199999999961,"ccL",0,11008
"1182",1,8,1,0,17,5.38199999999961,"send",1,11017
"1183",1,8,1,0,3,5.39699999999994,"ccL",0,11003
"1184",1,8,1,0,4,5.41299999999956,"confirm",1,11004
"1185",1,8,1,0,10,5.80299999999988,"ccH",50,11010
"1186",1,8,1,0,9,5.81899999999951,"ccH",100,11009
"1187",1,8,1,0,3,6.0059999999994,"ccM",0,11003
"1188",1,8,1,0,2,6.16199999999935,"send",1,11002
"1189",1,8,1,0,15,6.22399999999925,"confirm",1,11015
"1190",1,8,1,0,6,6.39599999999973,"ccM",50,11006
"1191",1,8,1,0,20,6.48899999999958,"send",1,11020
"1192",1,8,1,0,10,6.48899999999958,"send",1,11010
"1193",1,8,1,0,22,6.61399999999958,"ccL",0,11022
"1194",1,8,1,0,9,6.61399999999958,"send",1,11009
"1195",1,8,1,0,17,6.7549999999992,"confirm",1,11017
"1196",1,8,1,0,18,6.84799999999996,"ccM",50,11018
"1197",1,8,1,0,3,6.91099999999915,"ccH",0,11003
"1198",1,8,1,0,8,7.15999999999985,"ccM",0,11008
"1199",1,8,1,0,22,7.20699999999943,"ccM",50,11022
"1200",1,8,1,0,16,7.4409999999998,"ccL",0,11016
"1201",1,8,1,0,20,7.54999999999927,"confirm",1,11020
"1202",1,8,1,0,10,7.64399999999932,"confirm",1,11010
"1203",1,8,1,0,2,7.6909999999998,"confirm",1,11002
"1204",1,8,1,0,13,7.70599999999922,"send",1,11013
"1205",1,8,1,0,1,7.90899999999965,"ccM",100,11001
"1206",1,8,1,0,18,8.01800000000003,"ccH",100,11018
"1207",1,8,1,0,22,8.1269999999995,"ccH",50,11022
"1208",1,8,1,0,16,8.39300000000003,"ccM",50,11016
"1209",1,8,1,0,9,8.47099999999955,"confirm",1,11009
"1210",1,8,1,0,3,8.57999999999993,"send",1,11003
"1211",1,8,1,0,5,8.71999999999935,"ccL",50,11005
"1212",1,8,1,0,13,8.79799999999977,"confirm",1,11013
"1213",1,8,1,0,22,9.10999999999967,"send",1,11022
"1214",1,8,1,0,16,9.18799999999919,"ccH",100,11016
"1215",1,8,1,0,8,9.21899999999914,"ccH",0,11008
"1216",1,8,1,0,21,9.51599999999962,"ccL",0,11021
"1217",1,8,1,0,1,9.84299999999985,"ccH",50,11001
"1218",1,8,1,0,16,9.88999999999942,"send",1,11016
"1219",1,8,1,0,22,10.0619999999999,"confirm",1,11022
"1220",1,8,1,0,3,10.2649999999994,"confirm",1,11003
"1221",1,8,1,0,21,10.3579999999993,"ccM",50,11021
"1222",1,8,1,0,8,10.3579999999993,"send",1,11008
"1223",1,8,1,0,1,10.826,"send",1,11001
"1224",1,8,1,0,14,11.1689999999999,"confirm",1,11014
"1225",1,8,1,0,16,11.3249999999998,"confirm",1,11016
"1226",1,8,1,0,21,11.8559999999998,"ccH",100,11021
"1227",1,8,1,0,8,11.9489999999996,"confirm",1,11008
"1228",1,8,1,0,1,12.2299999999996,"confirm",1,11001
"1229",1,8,1,0,21,12.5419999999995,"send",1,11021
"1230",1,8,1,0,18,13.0259999999998,"send",1,11018
"1231",1,8,1,0,12,13.7749999999996,"ccL",0,11012
"1232",1,8,1,0,21,14.009,"confirm",1,11021
"1233",1,8,1,0,12,14.4449999999997,"ccM",50,11012
"1234",1,8,1,0,18,14.9289999999992,"confirm",1,11018
"1235",1,8,1,0,12,15.335,"ccH",100,11012
"1236",1,8,1,0,5,17.2689999999993,"ccM",100,11005
"1237",1,8,1,0,5,18.049,"ccH",100,11005
"1238",1,8,1,0,19,19.3439999999991,"ccL",0,11019
"1239",1,8,1,0,5,19.3439999999991,"send",1,11005
"1240",1,8,1,0,5,21.3409999999994,"confirm",1,11005
"1241",1,8,1,0,6,23.0719999999992,"ccH",50,11006
"1242",1,8,1,0,11,23.1969999999992,"confirm",1,11011
"1243",1,8,1,0,12,23.8679999999995,"send",1,11012
"1244",1,8,1,0,12,30.576,"confirm",1,11012
"1245",1,8,1,0,6,33.5869999999995,"ccH",100,11006
"1246",1,8,1,0,6,35.8799999999992,"ccH",50,11006
"1247",1,8,1,0,6,36.598,"send",1,11006
"1248",1,8,1,0,6,39.0939999999991,"confirm",1,11006
"1249",1,8,1,0,19,43.5549999999994,"ccM",0,11019
"1250",1,8,1,0,19,44.335,"ccH",0,11019
"1251",1,8,1,0,19,45.6299999999992,"send",1,11019
"1252",1,8,1,0,19,49.1709999999994,"confirm",1,11019
"1253",1,5,1,1,13,13.0720000000001,"buc_L",0,11013
"1254",1,5,1,1,13,13.0720000000001,"buc_M",0,11013
"1255",1,5,1,1,13,13.0720000000001,"buc_H",100,11013
"1256",1,5,1,1,4,13.4160000000002,"buc_L",0,11004
"1257",1,5,1,1,4,13.4160000000002,"buc_M",50,11004
"1258",1,5,1,1,4,13.4160000000002,"buc_H",50,11004
"1259",1,5,1,1,14,15.4439999999995,"buc_L",25,11014
"1260",1,5,1,1,14,15.4439999999995,"buc_M",50,11014
"1261",1,5,1,1,14,15.4439999999995,"buc_H",25,11014
"1262",1,5,1,1,22,17.9870000000001,"buc_L",75,11022
"1263",1,5,1,1,22,17.9870000000001,"buc_M",20,11022
"1264",1,5,1,1,22,17.9870000000001,"buc_H",5,11022
"1265",1,5,1,1,3,18.2209999999995,"buc_L",25,11003
"1266",1,5,1,1,3,18.2209999999995,"buc_M",50,11003
"1267",1,5,1,1,3,18.2209999999995,"buc_H",25,11003
"1268",1,5,1,1,2,19.2659999999996,"buc_L",70,11002
"1269",1,5,1,1,2,19.2659999999996,"buc_M",30,11002
"1270",1,5,1,1,2,19.2659999999996,"buc_H",0,11002
"1271",1,5,1,1,20,19.4839999999995,"buc_L",55,11020
"1272",1,5,1,1,20,19.4839999999995,"buc_M",35,11020
"1273",1,5,1,1,20,19.4839999999995,"buc_H",10,11020
"1274",1,5,1,1,7,20.8099999999995,"buc_L",5,11007
"1275",1,5,1,1,7,20.8099999999995,"buc_M",25,11007
"1276",1,5,1,1,7,20.8099999999995,"buc_H",70,11007
"1277",1,5,1,1,15,25.3339999999998,"buc_L",75,11015
"1278",1,5,1,1,15,25.3339999999998,"buc_M",15,11015
"1279",1,5,1,1,15,25.3339999999998,"buc_H",10,11015
"1280",1,5,1,1,1,26.0360000000001,"buc_L",50,11001
"1281",1,5,1,1,1,26.0360000000001,"buc_M",25,11001
"1282",1,5,1,1,1,26.0360000000001,"buc_H",25,11001
"1283",1,5,1,1,11,28.3760000000002,"buc_L",0,11011
"1284",1,5,1,1,11,28.3760000000002,"buc_M",40,11011
"1285",1,5,1,1,11,28.3760000000002,"buc_H",60,11011
"1286",1,5,1,1,12,30.701,"buc_L",35,11012
"1287",1,5,1,1,12,30.701,"buc_M",30,11012
"1288",1,5,1,1,12,30.701,"buc_H",35,11012
"1289",1,5,1,1,21,31.4809999999998,"buc_L",70,11021
"1290",1,5,1,1,21,31.4809999999998,"buc_M",15,11021
"1291",1,5,1,1,21,31.4809999999998,"buc_H",15,11021
"1292",1,5,1,1,10,31.8239999999996,"buc_L",20,11010
"1293",1,5,1,1,10,31.8239999999996,"buc_M",75,11010
"1294",1,5,1,1,10,31.8239999999996,"buc_H",5,11010
"1295",1,5,1,1,9,35.3180000000002,"buc_L",20,11009
"1296",1,5,1,1,9,35.3180000000002,"buc_M",45,11009
"1297",1,5,1,1,9,35.3180000000002,"buc_H",35,11009
"1298",1,5,1,1,16,35.8019999999997,"buc_L",25,11016
"1299",1,5,1,1,16,35.8019999999997,"buc_M",50,11016
"1300",1,5,1,1,16,35.8019999999997,"buc_H",25,11016
"1301",1,5,1,1,5,38.9219999999996,"buc_L",10,11005
"1302",1,5,1,1,5,38.9219999999996,"buc_M",45,11005
"1303",1,5,1,1,5,38.9219999999996,"buc_H",45,11005
"1304",1,5,1,1,8,39.8270000000002,"buc_L",35,11008
"1305",1,5,1,1,8,39.8270000000002,"buc_M",40,11008
"1306",1,5,1,1,8,39.8270000000002,"buc_H",25,11008
"1307",1,5,1,1,6,41.0429999999997,"buc_L",20,11006
"1308",1,5,1,1,6,41.0429999999997,"buc_M",45,11006
"1309",1,5,1,1,6,41.0429999999997,"buc_H",35,11006
"1310",1,5,1,1,17,46.5810000000001,"buc_L",40,11017
"1311",1,5,1,1,17,46.5810000000001,"buc_M",30,11017
"1312",1,5,1,1,17,46.5810000000001,"buc_H",30,11017
"1313",1,5,1,1,19,50.4039999999995,"buc_L",30,11019
"1314",1,5,1,1,19,50.4039999999995,"buc_M",30,11019
"1315",1,5,1,1,19,50.4039999999995,"buc_H",40,11019
"1316",1,5,1,1,18,92.5239999999994,"buc_L",35,11018
"1317",1,5,1,1,18,92.5239999999994,"buc_M",40,11018
"1318",1,5,1,1,18,92.5239999999994,"buc_H",25,11018
"1319",1,6,1,1,7,14.0720000000001,"bccL_L",100,11007
"1320",1,6,1,1,7,14.0720000000001,"bccL_M",0,11007
"1321",1,6,1,1,7,14.0720000000001,"bccL_H",0,11007
"1322",1,6,1,1,7,14.0720000000001,"bccM_L",0,11007
"1323",1,6,1,1,7,14.0720000000001,"bccM_M",100,11007
"1324",1,6,1,1,7,14.0720000000001,"bccM_H",0,11007
"1325",1,6,1,1,7,14.0720000000001,"bccH_L",0,11007
"1326",1,6,1,1,7,14.0720000000001,"bccH_M",0,11007
"1327",1,6,1,1,7,14.0720000000001,"bccH_H",100,11007
"1328",1,6,1,1,9,26.0209999999997,"bccL_L",100,11009
"1329",1,6,1,1,9,26.0209999999997,"bccL_M",0,11009
"1330",1,6,1,1,9,26.0209999999997,"bccL_H",0,11009
"1331",1,6,1,1,9,26.0209999999997,"bccM_L",50,11009
"1332",1,6,1,1,9,26.0209999999997,"bccM_M",50,11009
"1333",1,6,1,1,9,26.0209999999997,"bccM_H",0,11009
"1334",1,6,1,1,9,26.0209999999997,"bccH_L",35,11009
"1335",1,6,1,1,9,26.0209999999997,"bccH_M",0,11009
"1336",1,6,1,1,9,26.0209999999997,"bccH_H",65,11009
"1337",1,6,1,1,13,26.9260000000004,"bccL_L",100,11013
"1338",1,6,1,1,13,26.9260000000004,"bccL_M",0,11013
"1339",1,6,1,1,13,26.9260000000004,"bccL_H",0,11013
"1340",1,6,1,1,13,26.9260000000004,"bccM_L",0,11013
"1341",1,6,1,1,13,26.9260000000004,"bccM_M",100,11013
"1342",1,6,1,1,13,26.9260000000004,"bccM_H",0,11013
"1343",1,6,1,1,13,26.9260000000004,"bccH_L",0,11013
"1344",1,6,1,1,13,26.9260000000004,"bccH_M",0,11013
"1345",1,6,1,1,13,26.9260000000004,"bccH_H",100,11013
"1346",1,6,1,1,14,31.6689999999999,"bccL_L",100,11014
"1347",1,6,1,1,14,31.6689999999999,"bccL_M",0,11014
"1348",1,6,1,1,14,31.6689999999999,"bccL_H",0,11014
"1349",1,6,1,1,14,31.6689999999999,"bccM_L",25,11014
"1350",1,6,1,1,14,31.6689999999999,"bccM_M",50,11014
"1351",1,6,1,1,14,31.6689999999999,"bccM_H",25,11014
"1352",1,6,1,1,14,31.6689999999999,"bccH_L",20,11014
"1353",1,6,1,1,14,31.6689999999999,"bccH_M",20,11014
"1354",1,6,1,1,14,31.6689999999999,"bccH_H",60,11014
"1355",1,6,1,1,1,32.8230000000003,"bccL_L",100,11001
"1356",1,6,1,1,1,32.8230000000003,"bccL_M",0,11001
"1357",1,6,1,1,1,32.8230000000003,"bccL_H",0,11001
"1358",1,6,1,1,1,32.8230000000003,"bccM_L",25,11001
"1359",1,6,1,1,1,32.8230000000003,"bccM_M",40,11001
"1360",1,6,1,1,1,32.8230000000003,"bccM_H",35,11001
"1361",1,6,1,1,1,32.8230000000003,"bccH_L",50,11001
"1362",1,6,1,1,1,32.8230000000003,"bccH_M",25,11001
"1363",1,6,1,1,1,32.8230000000003,"bccH_H",25,11001
"1364",1,6,1,1,20,41.6840000000002,"bccL_L",30,11020
"1365",1,6,1,1,20,41.6840000000002,"bccL_M",55,11020
"1366",1,6,1,1,20,41.6840000000002,"bccL_H",15,11020
"1367",1,6,1,1,20,41.6840000000002,"bccM_L",60,11020
"1368",1,6,1,1,20,41.6840000000002,"bccM_M",35,11020
"1369",1,6,1,1,20,41.6840000000002,"bccM_H",5,11020
"1370",1,6,1,1,20,41.6840000000002,"bccH_L",65,11020
"1371",1,6,1,1,20,41.6840000000002,"bccH_M",25,11020
"1372",1,6,1,1,20,41.6840000000002,"bccH_H",10,11020
"1373",1,6,1,1,4,42.1990000000005,"bccL_L",100,11004
"1374",1,6,1,1,4,42.1990000000005,"bccL_M",0,11004
"1375",1,6,1,1,4,42.1990000000005,"bccL_H",0,11004
"1376",1,6,1,1,4,42.1990000000005,"bccM_L",40,11004
"1377",1,6,1,1,4,42.1990000000005,"bccM_M",60,11004
"1378",1,6,1,1,4,42.1990000000005,"bccM_H",0,11004
"1379",1,6,1,1,4,42.1990000000005,"bccH_L",30,11004
"1380",1,6,1,1,4,42.1990000000005,"bccH_M",35,11004
"1381",1,6,1,1,4,42.1990000000005,"bccH_H",35,11004
"1382",1,6,1,1,15,45.9890000000005,"bccL_L",90,11015
"1383",1,6,1,1,15,45.9890000000005,"bccL_M",5,11015
"1384",1,6,1,1,15,45.9890000000005,"bccL_H",5,11015
"1385",1,6,1,1,15,45.9890000000005,"bccM_L",30,11015
"1386",1,6,1,1,15,45.9890000000005,"bccM_M",50,11015
"1387",1,6,1,1,15,45.9890000000005,"bccM_H",20,11015
"1388",1,6,1,1,15,45.9890000000005,"bccH_L",55,11015
"1389",1,6,1,1,15,45.9890000000005,"bccH_M",35,11015
"1390",1,6,1,1,15,45.9890000000005,"bccH_H",10,11015
"1391",1,6,1,1,22,46.348,"bccL_L",85,11022
"1392",1,6,1,1,22,46.348,"bccL_M",15,11022
"1393",1,6,1,1,22,46.348,"bccL_H",0,11022
"1394",1,6,1,1,22,46.348,"bccM_L",25,11022
"1395",1,6,1,1,22,46.348,"bccM_M",70,11022
"1396",1,6,1,1,22,46.348,"bccM_H",5,11022
"1397",1,6,1,1,22,46.348,"bccH_L",15,11022
"1398",1,6,1,1,22,46.348,"bccH_M",75,11022
"1399",1,6,1,1,22,46.348,"bccH_H",10,11022
"1400",1,6,1,1,10,47.5810000000001,"bccL_L",100,11010
"1401",1,6,1,1,10,47.5810000000001,"bccL_M",0,11010
"1402",1,6,1,1,10,47.5810000000001,"bccL_H",0,11010
"1403",1,6,1,1,10,47.5810000000001,"bccM_L",35,11010
"1404",1,6,1,1,10,47.5810000000001,"bccM_M",65,11010
"1405",1,6,1,1,10,47.5810000000001,"bccM_H",0,11010
"1406",1,6,1,1,10,47.5810000000001,"bccH_L",30,11010
"1407",1,6,1,1,10,47.5810000000001,"bccH_M",65,11010
"1408",1,6,1,1,10,47.5810000000001,"bccH_H",5,11010
"1409",1,6,1,1,12,56.5039999999999,"bccL_L",65,11012
"1410",1,6,1,1,12,56.5039999999999,"bccL_M",25,11012
"1411",1,6,1,1,12,56.5039999999999,"bccL_H",10,11012
"1412",1,6,1,1,12,56.5039999999999,"bccM_L",25,11012
"1413",1,6,1,1,12,56.5039999999999,"bccM_M",65,11012
"1414",1,6,1,1,12,56.5039999999999,"bccM_H",10,11012
"1415",1,6,1,1,12,56.5039999999999,"bccH_L",5,11012
"1416",1,6,1,1,12,56.5039999999999,"bccH_M",20,11012
"1417",1,6,1,1,12,56.5039999999999,"bccH_H",75,11012
"1418",1,6,1,1,2,58.875,"bccL_L",70,11002
"1419",1,6,1,1,2,58.875,"bccL_M",30,11002
"1420",1,6,1,1,2,58.875,"bccL_H",0,11002
"1421",1,6,1,1,2,58.875,"bccM_L",30,11002
"1422",1,6,1,1,2,58.875,"bccM_M",70,11002
"1423",1,6,1,1,2,58.875,"bccM_H",0,11002
"1424",1,6,1,1,2,58.875,"bccH_L",30,11002
"1425",1,6,1,1,2,58.875,"bccH_M",0,11002
"1426",1,6,1,1,2,58.875,"bccH_H",70,11002
"1427",1,6,1,1,16,62.5100000000002,"bccL_L",60,11016
"1428",1,6,1,1,16,62.5100000000002,"bccL_M",40,11016
"1429",1,6,1,1,16,62.5100000000002,"bccL_H",0,11016
"1430",1,6,1,1,16,62.5100000000002,"bccM_L",35,11016
"1431",1,6,1,1,16,62.5100000000002,"bccM_M",60,11016
"1432",1,6,1,1,16,62.5100000000002,"bccM_H",5,11016
"1433",1,6,1,1,16,62.5100000000002,"bccH_L",15,11016
"1434",1,6,1,1,16,62.5100000000002,"bccH_M",50,11016
"1435",1,6,1,1,16,62.5100000000002,"bccH_H",35,11016
"1436",1,6,1,1,8,63.1959999999999,"bccL_L",60,11008
"1437",1,6,1,1,8,63.1959999999999,"bccL_M",30,11008
"1438",1,6,1,1,8,63.1959999999999,"bccL_H",10,11008
"1439",1,6,1,1,8,63.1959999999999,"bccM_L",25,11008
"1440",1,6,1,1,8,63.1959999999999,"bccM_M",50,11008
"1441",1,6,1,1,8,63.1959999999999,"bccM_H",25,11008
"1442",1,6,1,1,8,63.1959999999999,"bccH_L",45,11008
"1443",1,6,1,1,8,63.1959999999999,"bccH_M",35,11008
"1444",1,6,1,1,8,63.1959999999999,"bccH_H",20,11008
"1445",1,6,1,1,3,63.384,"bccL_L",70,11003
"1446",1,6,1,1,3,63.384,"bccL_M",25,11003
"1447",1,6,1,1,3,63.384,"bccL_H",5,11003
"1448",1,6,1,1,3,63.384,"bccM_L",25,11003
"1449",1,6,1,1,3,63.384,"bccM_M",50,11003
"1450",1,6,1,1,3,63.384,"bccM_H",25,11003
"1451",1,6,1,1,3,63.384,"bccH_L",0,11003
"1452",1,6,1,1,3,63.384,"bccH_M",50,11003
"1453",1,6,1,1,3,63.384,"bccH_H",50,11003
"1454",1,6,1,1,19,65.3649999999998,"bccL_L",75,11019
"1455",1,6,1,1,19,65.3649999999998,"bccL_M",0,11019
"1456",1,6,1,1,19,65.3649999999998,"bccL_H",25,11019
"1457",1,6,1,1,19,65.3649999999998,"bccM_L",25,11019
"1458",1,6,1,1,19,65.3649999999998,"bccM_M",75,11019
"1459",1,6,1,1,19,65.3649999999998,"bccM_H",0,11019
"1460",1,6,1,1,19,65.3649999999998,"bccH_L",75,11019
"1461",1,6,1,1,19,65.3649999999998,"bccH_M",0,11019
"1462",1,6,1,1,19,65.3649999999998,"bccH_H",25,11019
"1463",1,6,1,1,6,65.4430000000002,"bccL_L",100,11006
"1464",1,6,1,1,6,65.4430000000002,"bccL_M",0,11006
"1465",1,6,1,1,6,65.4430000000002,"bccL_H",0,11006
"1466",1,6,1,1,6,65.4430000000002,"bccM_L",50,11006
"1467",1,6,1,1,6,65.4430000000002,"bccM_M",50,11006
"1468",1,6,1,1,6,65.4430000000002,"bccM_H",0,11006
"1469",1,6,1,1,6,65.4430000000002,"bccH_L",10,11006
"1470",1,6,1,1,6,65.4430000000002,"bccH_M",45,11006
"1471",1,6,1,1,6,65.4430000000002,"bccH_H",45,11006
"1472",1,6,1,1,21,74.1320000000005,"bccL_L",80,11021
"1473",1,6,1,1,21,74.1320000000005,"bccL_M",20,11021
"1474",1,6,1,1,21,74.1320000000005,"bccL_H",0,11021
"1475",1,6,1,1,21,74.1320000000005,"bccM_L",20,11021
"1476",1,6,1,1,21,74.1320000000005,"bccM_M",65,11021
"1477",1,6,1,1,21,74.1320000000005,"bccM_H",15,11021
"1478",1,6,1,1,21,74.1320000000005,"bccH_L",20,11021
"1479",1,6,1,1,21,74.1320000000005,"bccH_M",35,11021
"1480",1,6,1,1,21,74.1320000000005,"bccH_H",45,11021
"1481",1,6,1,1,17,79.576,"bccL_L",100,11017
"1482",1,6,1,1,17,79.576,"bccL_M",0,11017
"1483",1,6,1,1,17,79.576,"bccL_H",0,11017
"1484",1,6,1,1,17,79.576,"bccM_L",55,11017
"1485",1,6,1,1,17,79.576,"bccM_M",45,11017
"1486",1,6,1,1,17,79.576,"bccM_H",0,11017
"1487",1,6,1,1,17,79.576,"bccH_L",50,11017
"1488",1,6,1,1,17,79.576,"bccH_M",0,11017
"1489",1,6,1,1,17,79.576,"bccH_H",50,11017
"1490",1,6,1,1,5,86.1909999999998,"bccL_L",30,11005
"1491",1,6,1,1,5,86.1909999999998,"bccL_M",60,11005
"1492",1,6,1,1,5,86.1909999999998,"bccL_H",10,11005
"1493",1,6,1,1,5,86.1909999999998,"bccM_L",5,11005
"1494",1,6,1,1,5,86.1909999999998,"bccM_M",25,11005
"1495",1,6,1,1,5,86.1909999999998,"bccM_H",70,11005
"1496",1,6,1,1,5,86.1909999999998,"bccH_L",5,11005
"1497",1,6,1,1,5,86.1909999999998,"bccH_M",25,11005
"1498",1,6,1,1,5,86.1909999999998,"bccH_H",70,11005
"1499",1,6,1,1,11,97.0799999999999,"bccL_L",70,11011
"1500",1,6,1,1,11,97.0799999999999,"bccL_M",30,11011
"1501",1,6,1,1,11,97.0799999999999,"bccL_H",0,11011
"1502",1,6,1,1,11,97.0799999999999,"bccM_L",0,11011
"1503",1,6,1,1,11,97.0799999999999,"bccM_M",75,11011
"1504",1,6,1,1,11,97.0799999999999,"bccM_H",25,11011
"1505",1,6,1,1,11,97.0799999999999,"bccH_L",0,11011
"1506",1,6,1,1,11,97.0799999999999,"bccH_M",15,11011
"1507",1,6,1,1,11,97.0799999999999,"bccH_H",85,11011
"1508",1,6,1,1,18,211.772,"bccL_L",60,11018
"1509",1,6,1,1,18,211.772,"bccL_M",25,11018
"1510",1,6,1,1,18,211.772,"bccL_H",15,11018
"1511",1,6,1,1,18,211.772,"bccM_L",20,11018
"1512",1,6,1,1,18,211.772,"bccM_M",65,11018
"1513",1,6,1,1,18,211.772,"bccM_H",15,11018
"1514",1,6,1,1,18,211.772,"bccH_L",15,11018
"1515",1,6,1,1,18,211.772,"bccH_M",35,11018
"1516",1,6,1,1,18,211.772,"bccH_H",50,11018
"1517",1,7,1,1,14,3.57299999999941,"uc",50,11014
"1518",1,7,1,1,2,3.82200000000012,"uc",0,11002
"1519",1,7,1,1,20,4.44599999999991,"uc",50,11020
"1520",1,7,1,1,21,4.85199999999986,"uc",0,11021
"1521",1,7,1,1,2,4.94599999999991,"send",1,11002
"1522",1,7,1,1,14,4.96100000000024,"send",1,11014
"1523",1,7,1,1,8,5.88199999999961,"uc",0,11008
"1524",1,7,1,1,16,6.06899999999951,"uc",50,11016
"1525",1,7,1,1,14,6.14699999999994,"confirm",1,11014
"1526",1,7,1,1,5,6.16200000000026,"uc",100,11005
"1527",1,7,1,1,21,6.31800000000021,"send",1,11021
"1528",1,7,1,1,10,6.42799999999988,"uc",50,11010
"1529",1,7,1,1,20,6.53700000000026,"send",1,11020
"1530",1,7,1,1,11,6.55199999999968,"uc",100,11011
"1531",1,7,1,1,16,6.97400000000016,"send",1,11016
"1532",1,7,1,1,8,7.05199999999968,"send",1,11008
"1533",1,7,1,1,10,7.13000000000011,"send",1,11010
"1534",1,7,1,1,6,7.31700000000001,"uc",100,11006
"1535",1,7,1,1,3,7.62899999999991,"uc",50,11003
"1536",1,7,1,1,9,7.6909999999998,"uc",0,11009
"1537",1,7,1,1,7,7.73799999999937,"uc",100,11007
"1538",1,7,1,1,5,8.05000000000018,"send",1,11005
"1539",1,7,1,1,11,8.11200000000008,"send",1,11011
"1540",1,7,1,1,18,8.1279999999997,"uc",100,11018
"1541",1,7,1,1,1,8.1899999999996,"uc",0,11001
"1542",1,7,1,1,20,8.26800000000003,"confirm",1,11020
"1543",1,7,1,1,10,8.3149999999996,"confirm",1,11010
"1544",1,7,1,1,16,8.36200000000008,"confirm",1,11016
"1545",1,7,1,1,6,8.54899999999998,"send",1,11006
"1546",1,7,1,1,8,8.8139999999994,"confirm",1,11008
"1547",1,7,1,1,9,8.89199999999983,"send",1,11009
"1548",1,7,1,1,3,8.90799999999945,"send",1,11003
"1549",1,7,1,1,7,9.1260000000002,"send",1,11007
"1550",1,7,1,1,2,9.2510000000002,"confirm",1,11002
"1551",1,7,1,1,5,9.35999999999967,"confirm",1,11005
"1552",1,7,1,1,21,9.47000000000025,"confirm",1,11021
"1553",1,7,1,1,1,9.82799999999952,"send",1,11001
"1554",1,7,1,1,18,9.92199999999957,"send",1,11018
"1555",1,7,1,1,12,10,"uc",0,11012
"1556",1,7,1,1,11,10.0469999999996,"confirm",1,11011
"1557",1,7,1,1,9,10.2029999999995,"cancel",1,11009
"1558",1,7,1,1,7,10.7960000000003,"confirm",1,11007
"1559",1,7,1,1,4,11.0919999999996,"uc",100,11004
"1560",1,7,1,1,6,11.2479999999996,"confirm",1,11006
"1561",1,7,1,1,3,11.4200000000001,"confirm",1,11003
"1562",1,7,1,1,9,11.5289999999995,"uc",50,11009
"1563",1,7,1,1,18,11.732,"confirm",1,11018
"1564",1,7,1,1,12,11.9499999999998,"send",1,11012
"1565",1,7,1,1,4,12.527,"send",1,11004
"1566",1,7,1,1,9,12.8239999999996,"uc",100,11009
"1567",1,7,1,1,1,13.0419999999995,"confirm",1,11001
"1568",1,7,1,1,22,13.4319999999998,"uc",0,11022
"1569",1,7,1,1,4,13.7129999999997,"confirm",1,11004
"1570",1,7,1,1,9,13.8379999999997,"send",1,11009
"1571",1,7,1,1,15,13.9160000000002,"uc",50,11015
"1572",1,7,1,1,22,14.6329999999998,"send",1,11022
"1573",1,7,1,1,19,14.7110000000002,"uc",0,11019
"1574",1,7,1,1,12,14.7889999999998,"confirm",1,11012
"1575",1,7,1,1,9,14.8519999999999,"confirm",1,11009
"1576",1,7,1,1,19,15.6319999999996,"send",1,11019
"1577",1,7,1,1,15,15.8339999999998,"uc",0,11015
"1578",1,7,1,1,17,16.1309999999994,"uc",100,11017
"1579",1,7,1,1,22,16.3649999999998,"confirm",1,11022
"1580",1,7,1,1,15,16.7860000000001,"send",1,11015
"1581",1,7,1,1,13,17.0039999999999,"uc",50,11013
"1582",1,7,1,1,17,17.0039999999999,"send",1,11017
"1583",1,7,1,1,13,17.8469999999997,"send",1,11013
"1584",1,7,1,1,15,17.9250000000002,"confirm",1,11015
"1585",1,7,1,1,17,18.2370000000001,"confirm",1,11017
"1586",1,7,1,1,19,18.3299999999999,"confirm",1,11019
"1587",1,7,1,1,13,19.9369999999999,"confirm",1,11013
"1588",1,8,1,1,4,1.38799999999992,"ccL",0,11004
"1589",1,8,1,1,4,1.98100000000068,"ccM",0,11004
"1590",1,8,1,1,9,2.46500000000015,"ccL",0,11009
"1591",1,8,1,1,2,2.68299999999999,"ccL",0,11002
"1592",1,8,1,1,21,2.79200000000037,"ccL",0,11021
"1593",1,8,1,1,14,2.91700000000037,"ccL",0,11014
"1594",1,8,1,1,6,2.91700000000037,"ccL",0,11006
"1595",1,8,1,1,4,2.93299999999999,"ccH",0,11004
"1596",1,8,1,1,10,3.01100000000042,"ccL",0,11010
"1597",1,8,1,1,21,3.44700000000012,"ccM",0,11021
"1598",1,8,1,1,7,3.52500000000055,"ccL",0,11007
"1599",1,8,1,1,2,3.57200000000012,"ccM",0,11002
"1600",1,8,1,1,6,3.63500000000022,"ccM",50,11006
"1601",1,8,1,1,4,3.72800000000007,"send",1,11004
"1602",1,8,1,1,10,3.79100000000017,"ccM",50,11010
"1603",1,8,1,1,17,3.8060000000005,"ccL",0,11017
"1604",1,8,1,1,12,3.8690000000006,"ccL",0,11012
"1605",1,8,1,1,5,3.90000000000055,"ccL",50,11005
"1606",1,8,1,1,20,3.94700000000012,"ccM",100,11020
"1607",1,8,1,1,7,4.18100000000049,"ccM",50,11007
"1608",1,8,1,1,5,4.41499999999996,"ccM",100,11005
"1609",1,8,1,1,2,4.49300000000039,"ccH",0,11002
"1610",1,8,1,1,14,4.55500000000029,"ccM",0,11014
"1611",1,8,1,1,18,4.60199999999986,"ccH",100,11018
"1612",1,8,1,1,17,4.64900000000034,"ccM",50,11017
"1613",1,8,1,1,1,4.66400000000067,"ccL",0,11001
"1614",1,8,1,1,21,4.66400000000067,"ccH",0,11021
"1615",1,8,1,1,7,4.68000000000029,"ccH",100,11007
"1616",1,8,1,1,10,4.74200000000019,"ccH",50,11010
"1617",1,8,1,1,8,4.78900000000067,"ccL",0,11008
"1618",1,8,1,1,4,4.82000000000062,"confirm",1,11004
"1619",1,8,1,1,20,4.83600000000024,"ccL",50,11020
"1620",1,8,1,1,6,4.88300000000072,"ccH",100,11006
"1621",1,8,1,1,3,4.89800000000014,"ccL",0,11003
"1622",1,8,1,1,9,4.89800000000014,"ccM",0,11009
"1623",1,8,1,1,22,4.94500000000062,"ccL",0,11022
"1624",1,8,1,1,15,5.05400000000009,"ccL",50,11015
"1625",1,8,1,1,5,5.14800000000014,"ccH",100,11005
"1626",1,8,1,1,7,5.28800000000047,"send",1,11007
"1627",1,8,1,1,12,5.36599999999998,"ccM",0,11012
"1628",1,8,1,1,17,5.46000000000004,"ccH",100,11017
"1629",1,8,1,1,22,5.53800000000047,"ccM",50,11022
"1630",1,8,1,1,21,5.58500000000004,"send",1,11021
"1631",1,8,1,1,2,5.61599999999998,"send",1,11002
"1632",1,8,1,1,18,5.67799999999988,"ccM",50,11018
"1633",1,8,1,1,10,5.69400000000041,"send",1,11010
"1634",1,8,1,1,22,5.95900000000074,"ccH",50,11022
"1635",1,8,1,1,5,6.02199999999994,"send",1,11005
"1636",1,8,1,1,12,6.14600000000064,"ccH",100,11012
"1637",1,8,1,1,18,6.56800000000021,"ccL",0,11018
"1638",1,8,1,1,1,6.66100000000006,"ccM",50,11001
"1639",1,8,1,1,14,6.66100000000006,"ccH",0,11014
"1640",1,8,1,1,3,6.67700000000059,"ccM",50,11003
"1641",1,8,1,1,10,6.72400000000016,"confirm",1,11010
"1642",1,8,1,1,22,6.73900000000049,"send",1,11022
"1643",1,8,1,1,16,6.81700000000001,"ccL",0,11016
"1644",1,8,1,1,15,7.00399999999991,"ccL",0,11015
"1645",1,8,1,1,20,7.02000000000044,"ccH",50,11020
"1646",1,8,1,1,21,7.12899999999991,"confirm",1,11021
"1647",1,8,1,1,13,7.14500000000044,"ccL",0,11013
"1648",1,8,1,1,7,7.14500000000044,"confirm",1,11007
"1649",1,8,1,1,5,7.33200000000033,"confirm",1,11005
"1650",1,8,1,1,16,7.42600000000039,"ccM",50,11016
"1651",1,8,1,1,9,7.50399999999991,"ccH",0,11009
"1652",1,8,1,1,8,7.65999999999985,"ccM",0,11008
"1653",1,8,1,1,2,7.89400000000023,"confirm",1,11002
"1654",1,8,1,1,22,7.90900000000056,"confirm",1,11022
"1655",1,8,1,1,14,8.03400000000056,"send",1,11014
"1656",1,8,1,1,20,8.03400000000056,"send",1,11020
"1657",1,8,1,1,1,8.37700000000041,"ccH",100,11001
"1658",1,8,1,1,16,9.11000000000058,"ccH",50,11016
"1659",1,8,1,1,8,9.23500000000058,"ccH",50,11008
"1660",1,8,1,1,6,9.3130000000001,"ccH",50,11006
"1661",1,8,1,1,1,9.36000000000058,"send",1,11001
"1662",1,8,1,1,20,9.5630000000001,"confirm",1,11020
"1663",1,8,1,1,1,10.2960000000003,"confirm",1,11001
"1664",1,8,1,1,15,10.3740000000007,"ccM",0,11015
"1665",1,8,1,1,8,10.4990000000007,"send",1,11008
"1666",1,8,1,1,16,10.5770000000002,"send",1,11016
"1667",1,8,1,1,14,10.7480000000005,"confirm",1,11014
"1668",1,8,1,1,13,10.7640000000001,"ccM",50,11013
"1669",1,8,1,1,15,10.9670000000005,"ccH",50,11015
"1670",1,8,1,1,17,11.076,"send",1,11017
"1671",1,8,1,1,15,11.8870000000006,"send",1,11015
"1672",1,8,1,1,8,11.9650000000002,"confirm",1,11008
"1673",1,8,1,1,17,12.308,"confirm",1,11017
"1674",1,8,1,1,9,12.9480000000003,"send",1,11009
"1675",1,8,1,1,16,13.1350000000002,"confirm",1,11016
"1676",1,8,1,1,15,13.2290000000003,"confirm",1,11015
"1677",1,8,1,1,3,13.4470000000001,"ccH",50,11003
"1678",1,8,1,1,3,14.5860000000002,"send",1,11003
"1679",1,8,1,1,9,14.7890000000007,"confirm",1,11009
"1680",1,8,1,1,18,14.8670000000002,"send",1,11018
"1681",1,8,1,1,12,15.0230000000001,"send",1,11012
"1682",1,8,1,1,3,16.0060000000003,"confirm",1,11003
"1683",1,8,1,1,18,16.817,"confirm",1,11018
"1684",1,8,1,1,12,17.0039999999999,"confirm",1,11012
"1685",1,8,1,1,13,17.7370000000001,"ccH",100,11013
"1686",1,8,1,1,11,18.424,"ccL",0,11011
"1687",1,8,1,1,11,19.4690000000001,"ccM",50,11011
"1688",1,8,1,1,11,20.1240000000007,"ccH",100,11011
"1689",1,8,1,1,6,21.1220000000003,"send",1,11006
"1690",1,8,1,1,11,21.2160000000003,"send",1,11011
"1691",1,8,1,1,11,22.6820000000007,"confirm",1,11011
"1692",1,8,1,1,6,24.0080000000007,"confirm",1,11006
"1693",1,8,1,1,13,24.9760000000006,"ccM",0,11013
"1694",1,8,1,1,13,32.5880000000006,"ccH",50,11013
"1695",1,8,1,1,19,33.6959999999999,"ccM",50,11019
"1696",1,8,1,1,19,34.835,"ccL",100,11019
"1697",1,8,1,1,13,35.0529999999999,"ccH",0,11013
"1698",1,8,1,1,19,35.6770000000006,"ccH",0,11019
"1699",1,8,1,1,13,36.2550000000001,"send",1,11013
"1700",1,8,1,1,19,36.348,"send",1,11019
"1701",1,8,1,1,13,37.7049999999999,"confirm",1,11013
"1702",1,8,1,1,19,40.451,"confirm",1,11019
"1703",1,5,1,2,7,11.7939999999999,"buc_L",0,11007
"1704",1,5,1,2,7,11.7939999999999,"buc_M",0,11007
"1705",1,5,1,2,7,11.7939999999999,"buc_H",100,11007
"1706",1,5,1,2,9,15.2420000000002,"buc_L",45,11009
"1707",1,5,1,2,9,15.2420000000002,"buc_M",55,11009
"1708",1,5,1,2,9,15.2420000000002,"buc_H",0,11009
"1709",1,5,1,2,13,16.8490000000002,"buc_L",80,11013
"1710",1,5,1,2,13,16.8490000000002,"buc_M",20,11013
"1711",1,5,1,2,13,16.8490000000002,"buc_H",0,11013
"1712",1,5,1,2,4,17.223,"buc_L",0,11004
"1713",1,5,1,2,4,17.223,"buc_M",50,11004
"1714",1,5,1,2,4,17.223,"buc_H",50,11004
"1715",1,5,1,2,2,20.7020000000002,"buc_L",70,11002
"1716",1,5,1,2,2,20.7020000000002,"buc_M",30,11002
"1717",1,5,1,2,2,20.7020000000002,"buc_H",0,11002
"1718",1,5,1,2,21,22.9009999999998,"buc_L",90,11021
"1719",1,5,1,2,21,22.9009999999998,"buc_M",5,11021
"1720",1,5,1,2,21,22.9009999999998,"buc_H",5,11021
"1721",1,5,1,2,5,23.1670000000004,"buc_L",15,11005
"1722",1,5,1,2,5,23.1670000000004,"buc_M",50,11005
"1723",1,5,1,2,5,23.1670000000004,"buc_H",35,11005
"1724",1,5,1,2,20,24.415,"buc_L",45,11020
"1725",1,5,1,2,20,24.415,"buc_M",35,11020
"1726",1,5,1,2,20,24.415,"buc_H",20,11020
"1727",1,5,1,2,14,24.6800000000003,"buc_L",20,11014
"1728",1,5,1,2,14,24.6800000000003,"buc_M",60,11014
"1729",1,5,1,2,14,24.6800000000003,"buc_H",20,11014
"1730",1,5,1,2,16,25.1319999999996,"buc_L",35,11016
"1731",1,5,1,2,16,25.1319999999996,"buc_M",50,11016
"1732",1,5,1,2,16,25.1319999999996,"buc_H",15,11016
"1733",1,5,1,2,3,25.3819999999996,"buc_L",35,11003
"1734",1,5,1,2,3,25.3819999999996,"buc_M",45,11003
"1735",1,5,1,2,3,25.3819999999996,"buc_H",20,11003
"1736",1,5,1,2,11,25.46,"buc_L",40,11011
"1737",1,5,1,2,11,25.46,"buc_M",30,11011
"1738",1,5,1,2,11,25.46,"buc_H",30,11011
"1739",1,5,1,2,22,25.6630000000005,"buc_L",50,11022
"1740",1,5,1,2,22,25.6630000000005,"buc_M",35,11022
"1741",1,5,1,2,22,25.6630000000005,"buc_H",15,11022
"1742",1,5,1,2,10,26.5990000000002,"buc_L",35,11010
"1743",1,5,1,2,10,26.5990000000002,"buc_M",65,11010
"1744",1,5,1,2,10,26.5990000000002,"buc_H",0,11010
"1745",1,5,1,2,15,27.4570000000003,"buc_L",40,11015
"1746",1,5,1,2,15,27.4570000000003,"buc_M",40,11015
"1747",1,5,1,2,15,27.4570000000003,"buc_H",20,11015
"1748",1,5,1,2,8,27.5659999999998,"buc_L",30,11008
"1749",1,5,1,2,8,27.5659999999998,"buc_M",40,11008
"1750",1,5,1,2,8,27.5659999999998,"buc_H",30,11008
"1751",1,5,1,2,1,30.4520000000002,"buc_L",30,11001
"1752",1,5,1,2,1,30.4520000000002,"buc_M",30,11001
"1753",1,5,1,2,1,30.4520000000002,"buc_H",40,11001
"1754",1,5,1,2,19,35.4750000000004,"buc_L",30,11019
"1755",1,5,1,2,19,35.4750000000004,"buc_M",30,11019
"1756",1,5,1,2,19,35.4750000000004,"buc_H",40,11019
"1757",1,5,1,2,6,36.5200000000004,"buc_L",15,11006
"1758",1,5,1,2,6,36.5200000000004,"buc_M",40,11006
"1759",1,5,1,2,6,36.5200000000004,"buc_H",45,11006
"1760",1,5,1,2,18,42.1989999999996,"buc_L",15,11018
"1761",1,5,1,2,18,42.1989999999996,"buc_M",25,11018
"1762",1,5,1,2,18,42.1989999999996,"buc_H",60,11018
"1763",1,5,1,2,17,42.5110000000004,"buc_L",55,11017
"1764",1,5,1,2,17,42.5110000000004,"buc_M",20,11017
"1765",1,5,1,2,17,42.5110000000004,"buc_H",25,11017
"1766",1,5,1,2,12,64.0699999999997,"buc_L",50,11012
"1767",1,5,1,2,12,64.0699999999997,"buc_M",30,11012
"1768",1,5,1,2,12,64.0699999999997,"buc_H",20,11012
"1769",1,6,1,2,7,9.6869999999999,"bccL_L",100,11007
"1770",1,6,1,2,7,9.6869999999999,"bccL_M",0,11007
"1771",1,6,1,2,7,9.6869999999999,"bccL_H",0,11007
"1772",1,6,1,2,7,9.6869999999999,"bccM_L",0,11007
"1773",1,6,1,2,7,9.6869999999999,"bccM_M",100,11007
"1774",1,6,1,2,7,9.6869999999999,"bccM_H",0,11007
"1775",1,6,1,2,7,9.6869999999999,"bccH_L",0,11007
"1776",1,6,1,2,7,9.6869999999999,"bccH_M",0,11007
"1777",1,6,1,2,7,9.6869999999999,"bccH_H",100,11007
"1778",1,6,1,2,13,14.6170000000002,"bccL_L",100,11013
"1779",1,6,1,2,13,14.6170000000002,"bccL_M",0,11013
"1780",1,6,1,2,13,14.6170000000002,"bccL_H",0,11013
"1781",1,6,1,2,13,14.6170000000002,"bccM_L",100,11013
"1782",1,6,1,2,13,14.6170000000002,"bccM_M",0,11013
"1783",1,6,1,2,13,14.6170000000002,"bccM_H",0,11013
"1784",1,6,1,2,13,14.6170000000002,"bccH_L",100,11013
"1785",1,6,1,2,13,14.6170000000002,"bccH_M",0,11013
"1786",1,6,1,2,13,14.6170000000002,"bccH_H",0,11013
"1787",1,6,1,2,14,27.3310000000001,"bccL_L",100,11014
"1788",1,6,1,2,14,27.3310000000001,"bccL_M",0,11014
"1789",1,6,1,2,14,27.3310000000001,"bccL_H",0,11014
"1790",1,6,1,2,14,27.3310000000001,"bccM_L",25,11014
"1791",1,6,1,2,14,27.3310000000001,"bccM_M",60,11014
"1792",1,6,1,2,14,27.3310000000001,"bccM_H",15,11014
"1793",1,6,1,2,14,27.3310000000001,"bccH_L",15,11014
"1794",1,6,1,2,14,27.3310000000001,"bccH_M",55,11014
"1795",1,6,1,2,14,27.3310000000001,"bccH_H",30,11014
"1796",1,6,1,2,12,30.3419999999996,"bccL_L",100,11012
"1797",1,6,1,2,12,30.3419999999996,"bccL_M",0,11012
"1798",1,6,1,2,12,30.3419999999996,"bccL_H",0,11012
"1799",1,6,1,2,12,30.3419999999996,"bccM_L",0,11012
"1800",1,6,1,2,12,30.3419999999996,"bccM_M",100,11012
"1801",1,6,1,2,12,30.3419999999996,"bccM_H",0,11012
"1802",1,6,1,2,12,30.3419999999996,"bccH_L",15,11012
"1803",1,6,1,2,12,30.3419999999996,"bccH_M",20,11012
"1804",1,6,1,2,12,30.3419999999996,"bccH_H",65,11012
"1805",1,6,1,2,17,31.8400000000001,"bccL_L",100,11017
"1806",1,6,1,2,17,31.8400000000001,"bccL_M",0,11017
"1807",1,6,1,2,17,31.8400000000001,"bccL_H",0,11017
"1808",1,6,1,2,17,31.8400000000001,"bccM_L",75,11017
"1809",1,6,1,2,17,31.8400000000001,"bccM_M",25,11017
"1810",1,6,1,2,17,31.8400000000001,"bccM_H",0,11017
"1811",1,6,1,2,17,31.8400000000001,"bccH_L",80,11017
"1812",1,6,1,2,17,31.8400000000001,"bccH_M",0,11017
"1813",1,6,1,2,17,31.8400000000001,"bccH_H",20,11017
"1814",1,6,1,2,21,36.6440000000002,"bccL_L",90,11021
"1815",1,6,1,2,21,36.6440000000002,"bccL_M",5,11021
"1816",1,6,1,2,21,36.6440000000002,"bccL_H",5,11021
"1817",1,6,1,2,21,36.6440000000002,"bccM_L",85,11021
"1818",1,6,1,2,21,36.6440000000002,"bccM_M",10,11021
"1819",1,6,1,2,21,36.6440000000002,"bccM_H",5,11021
"1820",1,6,1,2,21,36.6440000000002,"bccH_L",80,11021
"1821",1,6,1,2,21,36.6440000000002,"bccH_M",5,11021
"1822",1,6,1,2,21,36.6440000000002,"bccH_H",15,11021
"1823",1,6,1,2,20,39.4520000000002,"bccL_L",25,11020
"1824",1,6,1,2,20,39.4520000000002,"bccL_M",65,11020
"1825",1,6,1,2,20,39.4520000000002,"bccL_H",10,11020
"1826",1,6,1,2,20,39.4520000000002,"bccM_L",20,11020
"1827",1,6,1,2,20,39.4520000000002,"bccM_M",70,11020
"1828",1,6,1,2,20,39.4520000000002,"bccM_H",10,11020
"1829",1,6,1,2,20,39.4520000000002,"bccH_L",60,11020
"1830",1,6,1,2,20,39.4520000000002,"bccH_M",20,11020
"1831",1,6,1,2,20,39.4520000000002,"bccH_H",20,11020
"1832",1,6,1,2,1,41.0900000000002,"bccL_L",75,11001
"1833",1,6,1,2,1,41.0900000000002,"bccL_M",25,11001
"1834",1,6,1,2,1,41.0900000000002,"bccL_H",0,11001
"1835",1,6,1,2,1,41.0900000000002,"bccM_L",30,11001
"1836",1,6,1,2,1,41.0900000000002,"bccM_M",55,11001
"1837",1,6,1,2,1,41.0900000000002,"bccM_H",15,11001
"1838",1,6,1,2,1,41.0900000000002,"bccH_L",0,11001
"1839",1,6,1,2,1,41.0900000000002,"bccH_M",55,11001
"1840",1,6,1,2,1,41.0900000000002,"bccH_H",45,11001
"1841",1,6,1,2,16,42.3379999999997,"bccL_L",65,11016
"1842",1,6,1,2,16,42.3379999999997,"bccL_M",35,11016
"1843",1,6,1,2,16,42.3379999999997,"bccL_H",0,11016
"1844",1,6,1,2,16,42.3379999999997,"bccM_L",25,11016
"1845",1,6,1,2,16,42.3379999999997,"bccM_M",60,11016
"1846",1,6,1,2,16,42.3379999999997,"bccM_H",15,11016
"1847",1,6,1,2,16,42.3379999999997,"bccH_L",0,11016
"1848",1,6,1,2,16,42.3379999999997,"bccH_M",50,11016
"1849",1,6,1,2,16,42.3379999999997,"bccH_H",50,11016
"1850",1,6,1,2,9,44.0389999999998,"bccL_L",100,11009
"1851",1,6,1,2,9,44.0389999999998,"bccL_M",0,11009
"1852",1,6,1,2,9,44.0389999999998,"bccL_H",0,11009
"1853",1,6,1,2,9,44.0389999999998,"bccM_L",55,11009
"1854",1,6,1,2,9,44.0389999999998,"bccM_M",45,11009
"1855",1,6,1,2,9,44.0389999999998,"bccM_H",0,11009
"1856",1,6,1,2,9,44.0389999999998,"bccH_L",55,11009
"1857",1,6,1,2,9,44.0389999999998,"bccH_M",30,11009
"1858",1,6,1,2,9,44.0389999999998,"bccH_H",15,11009
"1859",1,6,1,2,4,44.1480000000001,"bccL_L",100,11004
"1860",1,6,1,2,4,44.1480000000001,"bccL_M",0,11004
"1861",1,6,1,2,4,44.1480000000001,"bccL_H",0,11004
"1862",1,6,1,2,4,44.1480000000001,"bccM_L",40,11004
"1863",1,6,1,2,4,44.1480000000001,"bccM_M",60,11004
"1864",1,6,1,2,4,44.1480000000001,"bccM_H",0,11004
"1865",1,6,1,2,4,44.1480000000001,"bccH_L",30,11004
"1866",1,6,1,2,4,44.1480000000001,"bccH_M",55,11004
"1867",1,6,1,2,4,44.1480000000001,"bccH_H",15,11004
"1868",1,6,1,2,10,46.7060000000001,"bccL_L",100,11010
"1869",1,6,1,2,10,46.7060000000001,"bccL_M",0,11010
"1870",1,6,1,2,10,46.7060000000001,"bccL_H",0,11010
"1871",1,6,1,2,10,46.7060000000001,"bccM_L",55,11010
"1872",1,6,1,2,10,46.7060000000001,"bccM_M",45,11010
"1873",1,6,1,2,10,46.7060000000001,"bccM_H",0,11010
"1874",1,6,1,2,10,46.7060000000001,"bccH_L",50,11010
"1875",1,6,1,2,10,46.7060000000001,"bccH_M",45,11010
"1876",1,6,1,2,10,46.7060000000001,"bccH_H",5,11010
"1877",1,6,1,2,22,47.9389999999994,"bccL_L",40,11022
"1878",1,6,1,2,22,47.9389999999994,"bccL_M",60,11022
"1879",1,6,1,2,22,47.9389999999994,"bccL_H",0,11022
"1880",1,6,1,2,22,47.9389999999994,"bccM_L",20,11022
"1881",1,6,1,2,22,47.9389999999994,"bccM_M",65,11022
"1882",1,6,1,2,22,47.9389999999994,"bccM_H",15,11022
"1883",1,6,1,2,22,47.9389999999994,"bccH_L",5,11022
"1884",1,6,1,2,22,47.9389999999994,"bccH_M",85,11022
"1885",1,6,1,2,22,47.9389999999994,"bccH_H",10,11022
"1886",1,6,1,2,15,51.9009999999998,"bccL_L",95,11015
"1887",1,6,1,2,15,51.9009999999998,"bccL_M",5,11015
"1888",1,6,1,2,15,51.9009999999998,"bccL_H",0,11015
"1889",1,6,1,2,15,51.9009999999998,"bccM_L",45,11015
"1890",1,6,1,2,15,51.9009999999998,"bccM_M",30,11015
"1891",1,6,1,2,15,51.9009999999998,"bccM_H",25,11015
"1892",1,6,1,2,15,51.9009999999998,"bccH_L",50,11015
"1893",1,6,1,2,15,51.9009999999998,"bccH_M",50,11015
"1894",1,6,1,2,15,51.9009999999998,"bccH_H",0,11015
"1895",1,6,1,2,5,56.1129999999994,"bccL_L",25,11005
"1896",1,6,1,2,5,56.1129999999994,"bccL_M",50,11005
"1897",1,6,1,2,5,56.1129999999994,"bccL_H",25,11005
"1898",1,6,1,2,5,56.1129999999994,"bccM_L",10,11005
"1899",1,6,1,2,5,56.1129999999994,"bccM_M",55,11005
"1900",1,6,1,2,5,56.1129999999994,"bccM_H",35,11005
"1901",1,6,1,2,5,56.1129999999994,"bccH_L",10,11005
"1902",1,6,1,2,5,56.1129999999994,"bccH_M",55,11005
"1903",1,6,1,2,5,56.1129999999994,"bccH_H",35,11005
"1904",1,6,1,2,8,59.0770000000002,"bccL_L",75,11008
"1905",1,6,1,2,8,59.0770000000002,"bccL_M",20,11008
"1906",1,6,1,2,8,59.0770000000002,"bccL_H",5,11008
"1907",1,6,1,2,8,59.0770000000002,"bccM_L",35,11008
"1908",1,6,1,2,8,59.0770000000002,"bccM_M",40,11008
"1909",1,6,1,2,8,59.0770000000002,"bccM_H",25,11008
"1910",1,6,1,2,8,59.0770000000002,"bccH_L",35,11008
"1911",1,6,1,2,8,59.0770000000002,"bccH_M",45,11008
"1912",1,6,1,2,8,59.0770000000002,"bccH_H",20,11008
"1913",1,6,1,2,11,61.8850000000002,"bccL_L",85,11011
"1914",1,6,1,2,11,61.8850000000002,"bccL_M",15,11011
"1915",1,6,1,2,11,61.8850000000002,"bccL_H",0,11011
"1916",1,6,1,2,11,61.8850000000002,"bccM_L",40,11011
"1917",1,6,1,2,11,61.8850000000002,"bccM_M",50,11011
"1918",1,6,1,2,11,61.8850000000002,"bccM_H",10,11011
"1919",1,6,1,2,11,61.8850000000002,"bccH_L",5,11011
"1920",1,6,1,2,11,61.8850000000002,"bccH_M",30,11011
"1921",1,6,1,2,11,61.8850000000002,"bccH_H",65,11011
"1922",1,6,1,2,3,64.2879999999996,"bccL_L",65,11003
"1923",1,6,1,2,3,64.2879999999996,"bccL_M",35,11003
"1924",1,6,1,2,3,64.2879999999996,"bccL_H",0,11003
"1925",1,6,1,2,3,64.2879999999996,"bccM_L",25,11003
"1926",1,6,1,2,3,64.2879999999996,"bccM_M",50,11003
"1927",1,6,1,2,3,64.2879999999996,"bccM_H",25,11003
"1928",1,6,1,2,3,64.2879999999996,"bccH_L",5,11003
"1929",1,6,1,2,3,64.2879999999996,"bccH_M",35,11003
"1930",1,6,1,2,3,64.2879999999996,"bccH_H",60,11003
"1931",1,6,1,2,19,76.924,"bccL_L",25,11019
"1932",1,6,1,2,19,76.924,"bccL_M",0,11019
"1933",1,6,1,2,19,76.924,"bccL_H",75,11019
"1934",1,6,1,2,19,76.924,"bccM_L",25,11019
"1935",1,6,1,2,19,76.924,"bccM_M",75,11019
"1936",1,6,1,2,19,76.924,"bccM_H",0,11019
"1937",1,6,1,2,19,76.924,"bccH_L",75,11019
"1938",1,6,1,2,19,76.924,"bccH_M",0,11019
"1939",1,6,1,2,19,76.924,"bccH_H",25,11019
"1940",1,6,1,2,2,80.6049999999996,"bccL_L",100,11002
"1941",1,6,1,2,2,80.6049999999996,"bccL_M",0,11002
"1942",1,6,1,2,2,80.6049999999996,"bccL_H",0,11002
"1943",1,6,1,2,2,80.6049999999996,"bccM_L",65,11002
"1944",1,6,1,2,2,80.6049999999996,"bccM_M",35,11002
"1945",1,6,1,2,2,80.6049999999996,"bccM_H",0,11002
"1946",1,6,1,2,2,80.6049999999996,"bccH_L",30,11002
"1947",1,6,1,2,2,80.6049999999996,"bccH_M",30,11002
"1948",1,6,1,2,2,80.6049999999996,"bccH_H",40,11002
"1949",1,6,1,2,6,90.2929999999997,"bccL_L",80,11006
"1950",1,6,1,2,6,90.2929999999997,"bccL_M",10,11006
"1951",1,6,1,2,6,90.2929999999997,"bccL_H",10,11006
"1952",1,6,1,2,6,90.2929999999997,"bccM_L",10,11006
"1953",1,6,1,2,6,90.2929999999997,"bccM_M",50,11006
"1954",1,6,1,2,6,90.2929999999997,"bccM_H",40,11006
"1955",1,6,1,2,6,90.2929999999997,"bccH_L",10,11006
"1956",1,6,1,2,6,90.2929999999997,"bccH_M",45,11006
"1957",1,6,1,2,6,90.2929999999997,"bccH_H",45,11006
"1958",1,6,1,2,18,130.931,"bccL_L",55,11018
"1959",1,6,1,2,18,130.931,"bccL_M",35,11018
"1960",1,6,1,2,18,130.931,"bccL_H",10,11018
"1961",1,6,1,2,18,130.931,"bccM_L",25,11018
"1962",1,6,1,2,18,130.931,"bccM_M",60,11018
"1963",1,6,1,2,18,130.931,"bccM_H",15,11018
"1964",1,6,1,2,18,130.931,"bccH_L",15,11018
"1965",1,6,1,2,18,130.931,"bccH_M",10,11018
"1966",1,6,1,2,18,130.931,"bccH_H",75,11018
"1967",1,7,1,2,14,2.88599999999951,"uc",50,11014
"1968",1,7,1,2,16,3.22899999999936,"uc",50,11016
"1969",1,7,1,2,6,3.43199999999979,"uc",100,11006
"1970",1,7,1,2,21,3.52599999999984,"uc",0,11021
"1971",1,7,1,2,14,3.82200000000012,"send",1,11014
"1972",1,7,1,2,7,3.83799999999974,"uc",100,11007
"1973",1,7,1,2,20,4.03999999999996,"uc",0,11020
"1974",1,7,1,2,17,4.13400000000002,"uc",0,11017
"1975",1,7,1,2,10,4.28999999999996,"uc",50,11010
"1976",1,7,1,2,16,4.36799999999948,"send",1,11016
"1977",1,7,1,2,13,4.63299999999981,"uc",0,11013
"1978",1,7,1,2,21,4.64899999999943,"send",1,11021
"1979",1,7,1,2,15,4.80499999999938,"uc",0,11015
"1980",1,7,1,2,14,4.96099999999933,"confirm",1,11014
"1981",1,7,1,2,6,5.03899999999976,"send",1,11006
"1982",1,7,1,2,2,5.06999999999971,"uc",0,11002
"1983",1,7,1,2,17,5.16399999999976,"send",1,11017
"1984",1,7,1,2,18,5.19499999999971,"uc",100,11018
"1985",1,7,1,2,1,5.31999999999971,"uc",50,11001
"1986",1,7,1,2,9,5.33500000000004,"uc",0,11009
"1987",1,7,1,2,7,5.41299999999956,"send",1,11007
"1988",1,7,1,2,20,5.41299999999956,"send",1,11020
"1989",1,7,1,2,16,5.42900000000009,"confirm",1,11016
"1990",1,7,1,2,15,5.63199999999961,"send",1,11015
"1991",1,7,1,2,2,5.94399999999951,"send",1,11002
"1992",1,7,1,2,21,6.02199999999994,"confirm",1,11021
"1993",1,7,1,2,8,6.03699999999935,"uc",0,11008
"1994",1,7,1,2,5,6.05299999999988,"uc",100,11005
"1995",1,7,1,2,3,6.5679999999993,"uc",50,11003
