"","treatment","session","period","subject","group","first_player","uc","ccL","ccM","ccH","action","opp","ouc","occL","occM","occH","buc_L","buc_M","buc_H","bccL_L","bccL_M","bccL_H","bccM_L","bccM_M","bccM_H","bccH_L","bccH_M","bccH_H","opp_action","earning_kept","earning_received","earning_guess","earning_game","ucf","ccLf","ccMf","ccHf","oucf","occLf","occMf","occHf","subject_unq","session_unq","opp_unq","cond_type","opp_cond_type","cond_class_wide","cond_class_wide_o","cond_class_narrow","opp_cond_class_wide","opp_cond_class_wide_o","opp_cond_class_narrow","period_f","exp_pay_uc","exp_pay_ccL","exp_pay_ccM","exp_pay_ccH","opp_action_lag1","opp_cond_type_lag1","opp_cond_class_wide_lag1","opp_cond_class_wide_o_lag1","opp_cond_class_narrow_lag1","first_player_lag1","isCC","isS","isHS"
"1","CondInfo",1,1,1,8,1,0,0,50,100,0,5,100,50,100,100,0.5,0.25,0.25,1,0,0,0.25,0.4,0.35,0.5,0.25,0.25,50,100,150,0,250,"L","L","M","H",2,1,2,2,11001,10001,11005,5,17,"perf-cond-coop","perf-cond-coop","cond-coop","imp-cond-coop","imp-cond-coop","cond-coop","1",112.5,100,215,112.5,NA,NA,NA,NA,NA,NA,TRUE,FALSE,FALSE
"2","CondInfo",1,1,2,5,0,0,0,0,0,0,17,100,0,50,100,0.7,0.3,0,0.7,0.3,0,0.3,0.7,0,0.3,0,0.7,100,100,300,36.4,400,"L","L","L","L",2,0,1,2,11002,10001,11017,0,5,"selfish","selfish","selfish","perf-cond-coop","perf-cond-coop","cond-coop","1",45,145,155,210,NA,NA,NA,NA,NA,NA,FALSE,TRUE,FALSE
"3","CondInfo",1,1,3,1,1,50,0,50,50,50,20,50,50,100,50,0.25,0.5,0.25,0.7,0.25,0.05,0.25,0.5,0.25,0,0.5,0.5,100,50,300,18.9,350,"M","L","M","M",1,1,2,1,11003,10001,11020,4,16,"imp-cond-coop","imp-cond-coop","cond-coop","humped","humped","humped","1",150,152.5,200,225,NA,NA,NA,NA,NA,NA,TRUE,FALSE,FALSE
"4","CondInfo",1,1,4,3,1,100,0,0,0,100,22,0,0,50,50,0,0.5,0.5,1,0,0,0.4,0.6,0,0.3,0.35,0.35,50,0,150,40,150,"H","L","L","L",0,0,1,1,11004,10001,11022,0,4,"selfish","selfish","selfish","imp-cond-coop","imp-cond-coop","cond-coop","1",225,100,140,157.5,NA,NA,NA,NA,NA,NA,FALSE,TRUE,FALSE
"5","CondInfo",1,1,5,8,0,100,50,100,100,50,1,0,0,50,100,0.1,0.45,0.45,0.3,0.6,0.1,0.05,0.25,0.7,0.05,0.25,0.7,0,50,0,22.8,50,"H","M","H","H",0,0,1,2,11005,10001,11001,17,5,"imp-cond-coop","imp-cond-coop","cond-coop","perf-cond-coop","perf-cond-coop","cond-coop","1",202.5,220,297.5,247.5,NA,NA,NA,NA,NA,NA,TRUE,FALSE,FALSE
"6","CondInfo",1,1,6,9,0,100,0,50,50,50,9,100,0,0,0,0.2,0.45,0.35,1,0,0,0.5,0.5,0,0.1,0.45,0.45,100,50,300,40,350,"H","L","M","M",2,0,0,0,11006,10001,11009,4,0,"imp-cond-coop","imp-cond-coop","cond-coop","selfish","selfish","selfish","1",172.5,100,125,202.5,NA,NA,NA,NA,NA,NA,TRUE,FALSE,FALSE
"7","CondInfo",1,1,7,4,1,100,0,50,100,100,18,100,0,50,100,0.05,0.25,0.7,1,0,0,0,1,0,0,0,1,100,0,300,40,300,"H","L","M","H",2,0,1,2,11007,10001,11018,5,5,"perf-cond-coop","perf-cond-coop","cond-coop","perf-cond-coop","perf-cond-coop","cond-coop","1",247.5,100,200,300,NA,NA,NA,NA,NA,NA,TRUE,FALSE,FALSE
"8","CondInfo",1,1,8,6,0,0,0,0,50,0,12,0,0,0,100,0.35,0.4,0.25,0.6,0.3,0.1,0.25,0.5,0.25,0.45,0.35,0.2,0,100,0,34.8,100,"L","L","L","M",0,0,0,2,11008,10001,11012,1,2,"imp-cond-coop","imp-cond-coop","cond-coop","imp-cond-coop","imp-cond-coop","cond-coop","1",135,175,200,112.5,NA,NA,NA,NA,NA,NA,TRUE,FALSE,FALSE
"9","CondInfo",1,1,9,9,1,100,0,0,0,100,6,100,0,50,50,0.2,0.45,0.35,1,0,0,0.5,0.5,0,0.35,0,0.65,50,0,150,40,150,"H","L","L","L",2,0,1,1,11009,10001,11006,0,4,"selfish","selfish","selfish","imp-cond-coop","imp-cond-coop","cond-coop","1",172.5,100,125,195,NA,NA,NA,NA,NA,NA,FALSE,TRUE,FALSE
"10","CondInfo",1,1,10,7,0,50,0,50,50,0,21,0,0,0,0,0.2,0.75,0.05,1,0,0,0.35,0.65,0,0.3,0.65,0.05,0,100,0,40,100,"M","L","M","M",0,0,0,0,11010,10001,11021,4,0,"imp-cond-coop","imp-cond-coop","cond-coop","selfish","selfish","selfish","1",127.5,100,147.5,112.5,NA,NA,NA,NA,NA,NA,TRUE,FALSE,FALSE
"11","CondInfo",1,1,11,11,1,100,0,50,100,100,19,0,100,50,0,0,0.4,0.6,0.7,0.3,0,0,0.75,0.25,0,0.15,0.85,0,0,0,8.4,0,"H","L","M","H",0,2,1,0,11011,10001,11019,5,21,"perf-cond-coop","perf-cond-coop","cond-coop","inv-cond-coop","other","other","1",240,145,237.5,277.5,NA,NA,NA,NA,NA,NA,TRUE,FALSE,FALSE
"12","CondInfo",1,1,12,6,1,0,0,0,100,0,8,0,0,0,50,0.35,0.3,0.35,0.65,0.25,0.1,0.25,0.65,0.1,0.05,0.2,0.75,0,100,0,36.1,100,"L","L","L","H",0,0,0,1,11012,10001,11008,2,1,"imp-cond-coop","imp-cond-coop","cond-coop","imp-cond-coop","imp-cond-coop","cond-coop","1",150,167.5,177.5,255,NA,NA,NA,NA,NA,NA,TRUE,FALSE,FALSE
"13","CondInfo",1,1,13,2,1,50,0,0,0,50,14,50,0,0,0,0,0,1,1,0,0,0,1,0,0,0,1,0,50,0,40,50,"M","L","L","L",1,0,0,0,11013,10001,11014,0,0,"selfish","selfish","selfish","selfish","selfish","selfish","1",300,100,200,300,NA,NA,NA,NA,NA,NA,FALSE,TRUE,FALSE
"14","CondInfo",1,1,14,2,0,50,0,0,0,0,13,50,0,0,0,0.25,0.5,0.25,1,0,0,0.25,0.5,0.25,0.2,0.2,0.6,50,100,150,40,250,"M","L","L","L",1,0,0,0,11014,10001,11013,0,0,"selfish","selfish","selfish","selfish","selfish","selfish","1",150,100,200,210,NA,NA,NA,NA,NA,NA,FALSE,TRUE,FALSE
"15","CondInfo",1,1,15,10,0,0,0,0,50,0,16,50,0,50,50,0.75,0.15,0.1,0.9,0.05,0.05,0.3,0.5,0.2,0.55,0.35,0.1,50,100,150,39.7,250,"L","L","L","M",1,0,1,1,11015,10001,11016,1,4,"imp-cond-coop","imp-cond-coop","cond-coop","imp-cond-coop","imp-cond-coop","cond-coop","1",52.5,122.5,185,82.5,NA,NA,NA,NA,NA,NA,TRUE,FALSE,FALSE
"16","CondInfo",1,1,16,10,1,50,0,50,50,50,15,0,0,0,50,0.25,0.5,0.25,0.6,0.4,0,0.35,0.6,0.05,0.15,0.5,0.35,0,50,0,33.6,50,"M","L","M","M",0,0,0,1,11016,10001,11015,4,1,"imp-cond-coop","imp-cond-coop","cond-coop","imp-cond-coop","imp-cond-coop","cond-coop","1",150,160,155,180,NA,NA,NA,NA,NA,NA,TRUE,FALSE,FALSE
"17","CondInfo",1,1,17,5,1,100,0,50,100,100,2,0,0,0,0,0.4,0.3,0.3,1,0,0,0.55,0.45,0,0.5,0,0.5,0,0,0,40,0,"H","L","M","H",0,0,0,0,11017,10001,11002,5,0,"perf-cond-coop","perf-cond-coop","cond-coop","selfish","selfish","selfish","1",135,100,117.5,150,NA,NA,NA,NA,NA,NA,TRUE,FALSE,FALSE
"18","CondInfo",1,1,18,4,0,100,0,50,100,100,7,100,0,50,100,0.35,0.4,0.25,0.6,0.25,0.15,0.2,0.65,0.15,0.15,0.35,0.5,100,0,300,35.1,300,"H","L","M","H",2,0,1,2,11018,10001,11007,5,5,"perf-cond-coop","perf-cond-coop","cond-coop","perf-cond-coop","perf-cond-coop","cond-coop","1",135,182.5,192.5,202.5,NA,NA,NA,NA,NA,NA,TRUE,FALSE,FALSE
"19","CondInfo",1,1,19,11,0,0,100,50,0,0,11,100,0,50,100,0.3,0.3,0.4,0.75,0,0.25,0.25,0.75,0,0.75,0,0.25,100,100,300,37.5,400,"L","H","M","L",2,0,1,2,11019,10001,11011,21,5,"inv-cond-coop","other","other","perf-cond-coop","perf-cond-coop","cond-coop","1",165,175,162.5,75,NA,NA,NA,NA,NA,NA,FALSE,FALSE,FALSE
"20","CondInfo",1,1,20,1,0,50,50,100,50,100,3,50,0,50,50,0.55,0.35,0.1,0.3,0.55,0.15,0.6,0.35,0.05,0.65,0.25,0.1,50,0,150,23.7,150,"M","M","H","M",1,0,1,1,11020,10001,11003,16,4,"humped","humped","humped","imp-cond-coop","imp-cond-coop","cond-coop","1",82.5,227.5,117.5,67.5,NA,NA,NA,NA,NA,NA,FALSE,FALSE,TRUE
"21","CondInfo",1,1,21,7,1,0,0,0,0,0,10,50,0,50,50,0.7,0.15,0.15,0.8,0.2,0,0.2,0.65,0.15,0.2,0.35,0.45,0,100,0,38.4,100,"L","L","L","L",1,0,1,1,11021,10001,11010,0,4,"selfish","selfish","selfish","imp-cond-coop","imp-cond-coop","cond-coop","1",67.5,130,192.5,187.5,NA,NA,NA,NA,NA,NA,FALSE,TRUE,FALSE
"22","CondInfo",1,1,22,3,0,0,0,50,50,50,4,100,0,0,0,0.75,0.2,0.05,0.85,0.15,0,0.25,0.7,0.05,0.15,0.75,0.1,100,50,300,39.1,350,"L","L","M","M",2,0,0,0,11022,10001,11004,4,0,"imp-cond-coop","imp-cond-coop","cond-coop","selfish","selfish","selfish","1",45,122.5,170,142.5,NA,NA,NA,NA,NA,NA,TRUE,FALSE,FALSE
"23","CondInfo",1,2,1,7,0,50,0,50,100,0,11,0,0,0,50,0.3,0.3,0.4,0.75,0.25,0,0.3,0.55,0.15,0,0.55,0.45,0,100,0,37.5,100,"M","L","M","H",0,0,0,1,11001,10001,11011,5,1,"perf-cond-coop","perf-cond-coop","cond-coop","imp-cond-coop","imp-cond-coop","cond-coop","2",165,137.5,177.5,217.5,50,17,"imp-cond-coop","imp-cond-coop","cond-coop",1,TRUE,FALSE,FALSE
"24","CondInfo",1,2,2,9,0,0,0,0,0,0,20,0,50,50,0,0.7,0.3,0,1,0,0,0.65,0.35,0,0.3,0.3,0.4,0,100,0,0,100,"L","L","L","L",0,1,1,0,11002,10001,11020,0,12,"selfish","selfish","selfish","inv-cond-coop","other","other","2",45,100,102.5,165,100,5,"perf-cond-coop","other","other",0,FALSE,TRUE,FALSE
"25","CondInfo",1,2,3,3,0,50,0,50,100,100,5,100,50,100,100,0.35,0.45,0.2,0.65,0.35,0,0.25,0.5,0.25,0.05,0.35,0.6,100,0,300,23.1,300,"M","L","M","H",2,1,2,2,11003,10001,11005,5,17,"perf-cond-coop","perf-cond-coop","cond-coop","imp-cond-coop","imp-cond-coop","cond-coop","2",127.5,152.5,200,232.5,100,16,"humped","imp-cond-coop","cond-coop",1,TRUE,FALSE,FALSE
"26","CondInfo",1,2,4,4,1,100,0,0,0,100,14,50,0,0,0,0,0.5,0.5,1,0,0,0.4,0.6,0,0.3,0.55,0.15,0,0,0,40,0,"H","L","L","L",1,0,0,0,11004,10001,11014,0,0,"selfish","selfish","selfish","selfish","selfish","selfish","2",225,100,140,127.5,50,4,"imp-cond-coop","selfish","selfish",1,FALSE,TRUE,FALSE
"27","CondInfo",1,2,5,3,1,100,50,100,100,100,3,50,0,50,100,0.15,0.5,0.35,0.25,0.5,0.25,0.1,0.55,0.35,0.1,0.55,0.35,100,0,300,22.5,300,"H","M","H","H",1,0,1,2,11005,10001,11003,17,5,"imp-cond-coop","imp-cond-coop","cond-coop","perf-cond-coop","perf-cond-coop","cond-coop","2",180,250,237.5,187.5,0,5,"perf-cond-coop","perf-cond-coop","cond-coop",0,TRUE,FALSE,FALSE
"28","CondInfo",1,2,6,10,0,100,0,50,100,100,18,100,0,50,100,0.15,0.4,0.45,0.8,0.1,0.1,0.1,0.5,0.4,0.1,0.45,0.45,100,0,300,38.8,300,"H","L","M","H",2,0,1,2,11006,10001,11018,5,5,"perf-cond-coop","perf-cond-coop","cond-coop","perf-cond-coop","perf-cond-coop","cond-coop","2",195,145,245,202.5,100,0,"selfish","perf-cond-coop","cond-coop",0,TRUE,FALSE,FALSE
"29","CondInfo",1,2,7,6,0,100,0,50,100,0,9,0,0,0,0,0,0,1,1,0,0,0,1,0,0,0,1,0,100,0,40,100,"H","L","M","H",0,0,0,0,11007,10001,11009,5,0,"perf-cond-coop","perf-cond-coop","cond-coop","selfish","selfish","selfish","2",300,100,200,300,100,5,"perf-cond-coop","selfish","selfish",1,TRUE,FALSE,FALSE
"30","CondInfo",1,2,8,5,0,50,0,50,50,0,15,0,0,0,50,0.3,0.4,0.3,0.75,0.2,0.05,0.35,0.4,0.25,0.35,0.45,0.2,0,100,0,37.9,100,"M","L","M","M",0,0,0,1,11008,10001,11015,4,1,"imp-cond-coop","imp-cond-coop","cond-coop","imp-cond-coop","imp-cond-coop","cond-coop","2",150,145,185,127.5,0,2,"imp-cond-coop","imp-cond-coop","cond-coop",0,TRUE,FALSE,FALSE
"31","CondInfo",1,2,9,6,1,0,0,0,0,0,7,100,0,50,100,0.45,0.55,0,1,0,0,0.55,0.45,0,0.55,0.3,0.15,0,100,0,40,100,"L","L","L","L",2,0,1,2,11009,10001,11007,0,5,"selfish","selfish","selfish","perf-cond-coop","perf-cond-coop","cond-coop","2",82.5,100,117.5,90,50,4,"imp-cond-coop","perf-cond-coop","cond-coop",1,FALSE,TRUE,FALSE
"32","CondInfo",1,2,10,1,0,50,0,50,50,0,19,0,100,50,0,0.35,0.65,0,1,0,0,0.55,0.45,0,0.5,0.45,0.05,0,100,0,0,100,"M","L","M","M",0,2,1,0,11010,10001,11019,4,21,"imp-cond-coop","imp-cond-coop","cond-coop","inv-cond-coop","other","other","2",97.5,100,117.5,82.5,0,0,"selfish","other","other",0,TRUE,FALSE,FALSE
"33","CondInfo",1,2,11,7,1,0,0,0,50,0,1,50,0,50,100,0.4,0.3,0.3,0.85,0.15,0,0.4,0.5,0.1,0.05,0.3,0.65,0,100,0,39.1,100,"L","L","L","M",1,0,1,2,11011,10001,11001,1,5,"imp-cond-coop","imp-cond-coop","cond-coop","perf-cond-coop","perf-cond-coop","cond-coop","2",135,122.5,155,240,0,21,"inv-cond-coop","perf-cond-coop","cond-coop",1,TRUE,FALSE,FALSE
"34","CondInfo",1,2,12,11,0,0,0,0,0,0,17,0,0,0,0,0.5,0.3,0.2,1,0,0,0,1,0,0.15,0.2,0.65,0,100,0,40,100,"L","L","L","L",0,0,0,0,11012,10001,11017,0,0,"selfish","selfish","selfish","selfish","selfish","selfish","2",105,100,200,225,0,1,"imp-cond-coop","selfish","selfish",1,FALSE,TRUE,FALSE
"35","CondInfo",1,2,13,2,1,0,0,0,0,0,21,0,0,0,0,0.8,0.2,0,1,0,0,1,0,0,1,0,0,0,100,0,40,100,"L","L","L","L",0,0,0,0,11013,10001,11021,0,0,"selfish","selfish","selfish","selfish","selfish","selfish","2",30,100,50,0,0,0,"selfish","selfish","selfish",1,FALSE,TRUE,FALSE
"36","CondInfo",1,2,14,4,0,50,0,0,0,0,4,100,0,0,0,0.2,0.6,0.2,1,0,0,0.25,0.6,0.15,0.15,0.55,0.3,100,100,300,40,400,"M","L","L","L",2,0,0,0,11014,10001,11004,0,0,"selfish","selfish","selfish","selfish","selfish","selfish","2",150,100,185,172.5,50,0,"selfish","selfish","selfish",0,FALSE,TRUE,FALSE
"37","CondInfo",1,2,15,5,1,0,0,0,50,0,8,50,0,50,50,0.4,0.4,0.2,0.95,0.05,0,0.45,0.3,0.25,0.5,0.5,0,0,100,0,39.9,100,"L","L","L","M",1,0,1,1,11015,10001,11008,1,4,"imp-cond-coop","imp-cond-coop","cond-coop","imp-cond-coop","imp-cond-coop","cond-coop","2",120,107.5,170,75,50,4,"imp-cond-coop","imp-cond-coop","cond-coop",0,TRUE,FALSE,FALSE
"38","CondInfo",1,2,16,8,1,50,0,50,100,50,22,50,0,50,50,0.35,0.5,0.15,0.65,0.35,0,0.25,0.6,0.15,0,0.5,0.5,50,50,150,35.1,200,"M","L","M","H",1,0,1,1,11016,10001,11022,5,4,"perf-cond-coop","perf-cond-coop","cond-coop","imp-cond-coop","imp-cond-coop","cond-coop","2",120,152.5,185,225,0,1,"imp-cond-coop","imp-cond-coop","cond-coop",1,TRUE,FALSE,FALSE
"39","CondInfo",1,2,17,11,1,0,0,0,0,0,12,0,0,0,0,0.55,0.2,0.25,1,0,0,0.75,0.25,0,0.8,0,0.2,0,100,0,40,100,"L","L","L","L",0,0,0,0,11017,10001,11012,0,0,"selfish","selfish","selfish","selfish","selfish","selfish","2",105,100,87.5,60,0,0,"selfish","selfish","selfish",1,FALSE,TRUE,FALSE
"40","CondInfo",1,2,18,10,1,100,0,50,100,100,6,100,0,50,100,0.15,0.25,0.6,0.55,0.35,0.1,0.25,0.6,0.15,0.15,0.1,0.75,100,0,300,33.3,300,"H","L","M","H",2,0,1,2,11018,10001,11006,5,5,"perf-cond-coop","perf-cond-coop","cond-coop","perf-cond-coop","perf-cond-coop","cond-coop","2",217.5,182.5,185,240,100,5,"perf-cond-coop","perf-cond-coop","cond-coop",0,TRUE,FALSE,FALSE
"41","CondInfo",1,2,19,1,1,0,100,50,0,0,10,50,0,50,50,0.3,0.3,0.4,0.25,0,0.75,0.25,0.75,0,0.75,0,0.25,0,100,0,17.5,100,"L","H","M","L",1,0,1,1,11019,10001,11010,21,4,"inv-cond-coop","other","other","imp-cond-coop","imp-cond-coop","cond-coop","2",165,325,162.5,75,100,5,"perf-cond-coop","imp-cond-coop","cond-coop",0,FALSE,FALSE,FALSE
"42","CondInfo",1,2,20,9,1,0,50,50,0,0,2,0,0,0,0,0.45,0.35,0.2,0.25,0.65,0.1,0.2,0.7,0.1,0.6,0.2,0.2,0,100,0,20.1,100,"L","M","M","L",0,0,0,0,11020,10001,11002,12,0,"inv-cond-coop","other","other","selfish","selfish","selfish","2",112.5,227.5,185,90,50,4,"imp-cond-coop","selfish","selfish",0,FALSE,FALSE,FALSE
"43","CondInfo",1,2,21,2,0,0,0,0,0,0,13,0,0,0,0,0.9,0.05,0.05,0.9,0.05,0.05,0.85,0.1,0.05,0.8,0.05,0.15,0,100,0,39.7,100,"L","L","L","L",0,0,0,0,11021,10001,11013,0,0,"selfish","selfish","selfish","selfish","selfish","selfish","2",22.5,122.5,80,52.5,0,4,"imp-cond-coop","selfish","selfish",1,FALSE,TRUE,FALSE
"44","CondInfo",1,2,22,8,0,50,0,50,50,50,16,50,0,50,100,0.5,0.35,0.15,0.4,0.6,0,0.2,0.65,0.15,0.05,0.85,0.1,50,50,150,25.6,200,"M","L","M","M",1,0,1,2,11022,10001,11016,4,5,"imp-cond-coop","imp-cond-coop","cond-coop","perf-cond-coop","perf-cond-coop","cond-coop","2",97.5,190,192.5,157.5,100,0,"selfish","perf-cond-coop","cond-coop",0,TRUE,FALSE,FALSE
"45","CondInfo",1,3,1,9,1,50,50,100,100,50,4,50,0,0,0,0.25,0.25,0.5,0.5,0.5,0,0.25,0.25,0.5,0,0.5,0.5,0,50,0,22.5,50,"M","M","H","H",1,0,0,0,11001,10001,11004,17,0,"imp-cond-coop","imp-cond-coop","cond-coop","selfish","selfish","selfish","3",187.5,175,237.5,225,0,1,"imp-cond-coop","selfish","selfish",0,TRUE,FALSE,FALSE
"46","CondInfo",1,3,2,7,0,0,0,0,0,0,8,50,0,50,50,0.8,0.2,0,1,0,0,0.2,0.6,0.2,0.2,0.3,0.5,50,100,150,35.2,250,"L","L","L","L",1,0,1,1,11002,10001,11008,0,4,"selfish","selfish","selfish","imp-cond-coop","imp-cond-coop","cond-coop","3",30,100,200,195,0,12,"inv-cond-coop","imp-cond-coop","cond-coop",0,FALSE,TRUE,FALSE
"47","CondInfo",1,3,3,6,0,50,0,50,100,0,20,0,50,50,0,0.25,0.5,0.25,0.65,0.25,0.1,0.2,0.45,0.35,0.05,0.35,0.6,0,100,0,30.7,100,"M","L","M","H",0,1,1,0,11003,10001,11020,5,12,"perf-cond-coop","perf-cond-coop","cond-coop","inv-cond-coop","other","other","3",150,167.5,222.5,232.5,100,17,"imp-cond-coop","other","other",0,TRUE,FALSE,FALSE
"48","CondInfo",1,3,4,9,0,50,0,0,0,0,1,50,50,100,100,0,0.5,0.5,1,0,0,0.45,0.55,0,0.2,0.6,0.2,50,100,150,9.9,250,"M","L","L","L",1,1,2,2,11004,10001,11001,0,17,"selfish","selfish","selfish","imp-cond-coop","imp-cond-coop","cond-coop","3",225,100,132.5,150,0,0,"selfish","imp-cond-coop","cond-coop",1,FALSE,TRUE,FALSE
"49","CondInfo",1,3,5,2,1,100,50,100,100,100,21,0,0,0,0,0.2,0.7,0.1,0.3,0.65,0.05,0.1,0.5,0.4,0.05,0.55,0.4,0,0,0,15.6,0,"H","M","H","H",0,0,0,0,11005,10001,11021,17,0,"imp-cond-coop","imp-cond-coop","cond-coop","selfish","selfish","selfish","3",135,212.5,245,202.5,100,5,"perf-cond-coop","selfish","selfish",1,TRUE,FALSE,FALSE
"50","CondInfo",1,3,6,11,0,100,0,50,100,100,18,100,0,50,100,0.1,0.35,0.55,0.85,0.1,0.05,0,0.5,0.5,0.2,0.4,0.4,100,0,300,30,300,"H","L","M","H",2,0,1,2,11006,10001,11018,5,5,"perf-cond-coop","perf-cond-coop","cond-coop","perf-cond-coop","perf-cond-coop","cond-coop","3",217.5,130,275,180,100,5,"perf-cond-coop","perf-cond-coop","cond-coop",0,TRUE,FALSE,FALSE
"51","CondInfo",1,3,7,4,1,100,0,50,100,100,15,0,0,0,50,0.35,0,0.65,1,0,0,0,1,0,0,0,1,50,0,150,0,150,"H","L","M","H",0,0,0,1,11007,10001,11015,5,1,"perf-cond-coop","perf-cond-coop","cond-coop","imp-cond-coop","imp-cond-coop","cond-coop","3",195,100,200,300,0,0,"selfish","imp-cond-coop","cond-coop",0,TRUE,FALSE,FALSE
"52","CondInfo",1,3,8,7,1,50,0,50,50,50,2,0,0,0,0,0.3,0.4,0.3,0.5,0.4,0.1,0.35,0.45,0.2,0.4,0.4,0.2,0,50,0,26.7,50,"M","L","M","M",0,0,0,0,11008,10001,11002,4,0,"imp-cond-coop","imp-cond-coop","cond-coop","selfish","selfish","selfish","3",150,190,177.5,120,0,1,"imp-cond-coop","selfish","selfish",0,TRUE,FALSE,FALSE
"53","CondInfo",1,3,9,1,0,50,0,0,0,0,11,0,0,50,100,0,1,0,1,0,0,0.3,0.7,0,0.3,0.35,0.35,0,100,0,36.4,100,"M","L","L","L",0,0,1,2,11009,10001,11011,0,5,"selfish","selfish","selfish","perf-cond-coop","perf-cond-coop","cond-coop","3",150,100,155,157.5,0,5,"perf-cond-coop","perf-cond-coop","cond-coop",1,FALSE,TRUE,FALSE
"54","CondInfo",1,3,10,10,0,50,0,50,0,0,17,0,0,0,0,0.7,0.3,0,1,0,0,0.7,0.3,0,0.6,0.4,0,0,100,0,36.4,100,"M","L","M","L",0,0,0,0,11010,10001,11017,3,0,"humped","humped","humped","selfish","selfish","selfish","3",45,100,95,60,0,21,"inv-cond-coop","selfish","selfish",0,FALSE,FALSE,TRUE
"55","CondInfo",1,3,11,1,1,0,0,50,100,0,9,50,0,0,0,0.8,0.2,0,0.8,0.1,0.1,0.4,0.5,0.1,0.65,0.2,0.15,0,100,0,27.6,100,"L","L","M","H",1,0,0,0,11011,10001,11009,5,0,"perf-cond-coop","perf-cond-coop","cond-coop","selfish","selfish","selfish","3",30,145,155,75,0,5,"perf-cond-coop","selfish","selfish",1,TRUE,FALSE,FALSE
"56","CondInfo",1,3,12,5,1,0,0,0,0,0,14,50,0,0,0,0.85,0.1,0.05,0.85,0.1,0.05,0.4,0.45,0.15,0.25,0.25,0.5,0,100,0,28.3,100,"L","L","L","L",1,0,0,0,11012,10001,11014,0,0,"selfish","selfish","selfish","selfish","selfish","selfish","3",30,130,162.5,187.5,0,0,"selfish","selfish","selfish",0,FALSE,TRUE,FALSE
"57","CondInfo",1,3,13,8,1,0,0,0,0,0,19,0,0,0,0,1,0,0,1,0,0,1,0,0,1,0,0,0,100,0,40,100,"L","L","L","L",0,0,0,0,11013,10001,11019,0,0,"selfish","selfish","selfish","selfish","selfish","selfish","3",0,100,50,0,0,0,"selfish","selfish","selfish",1,FALSE,TRUE,FALSE
"58","CondInfo",1,3,14,5,0,50,0,0,0,0,12,0,0,0,0,0.15,0.55,0.3,1,0,0,0.4,0.35,0.25,0.2,0.4,0.4,0,100,0,29.1,100,"M","L","L","L",0,0,0,0,11014,10001,11012,0,0,"selfish","selfish","selfish","selfish","selfish","selfish","3",172.5,100,177.5,180,100,0,"selfish","selfish","selfish",0,FALSE,TRUE,FALSE
"59","CondInfo",1,3,15,4,0,0,0,0,50,50,7,100,0,50,100,0.85,0.15,0,0.95,0.05,0,0.5,0.25,0.25,0.55,0.25,0.2,100,50,300,22.5,350,"L","L","L","M",2,0,1,2,11015,10001,11007,1,5,"imp-cond-coop","imp-cond-coop","cond-coop","perf-cond-coop","perf-cond-coop","cond-coop","3",22.5,107.5,162.5,97.5,0,4,"imp-cond-coop","perf-cond-coop","cond-coop",1,TRUE,FALSE,FALSE
"60","CondInfo",1,3,16,3,0,50,0,50,50,0,22,0,0,50,50,0.4,0.35,0.25,0.8,0.2,0,0.45,0.5,0.05,0.1,0.5,0.4,0,100,0,30.9,100,"M","L","M","M",0,0,1,1,11016,10001,11022,4,4,"imp-cond-coop","imp-cond-coop","cond-coop","imp-cond-coop","imp-cond-coop","cond-coop","3",127.5,130,140,195,50,4,"imp-cond-coop","imp-cond-coop","cond-coop",1,TRUE,FALSE,FALSE
"61","CondInfo",1,3,17,10,1,0,0,0,0,0,10,50,0,50,0,0.55,0.2,0.25,1,0,0,0.6,0.4,0,0.7,0,0.3,0,100,0,25.6,100,"L","L","L","L",1,0,1,0,11017,10001,11010,0,3,"selfish","selfish","selfish","humped","humped","humped","3",105,100,110,90,0,0,"selfish","humped","humped",1,FALSE,TRUE,FALSE
"62","CondInfo",1,3,18,11,1,100,0,50,100,100,6,100,0,50,100,0.35,0.25,0.4,0.65,0.25,0.1,0.4,0.45,0.15,0.25,0.1,0.65,100,0,300,30.3,300,"H","L","M","H",2,0,1,2,11018,10001,11006,5,5,"perf-cond-coop","perf-cond-coop","cond-coop","perf-cond-coop","perf-cond-coop","cond-coop","3",157.5,167.5,162.5,210,100,5,"perf-cond-coop","perf-cond-coop","cond-coop",1,TRUE,FALSE,FALSE
"63","CondInfo",1,3,19,8,0,0,0,0,0,0,13,0,0,0,0,0.3,0.3,0.4,0.3,0.3,0.4,0.25,0.75,0,0.75,0,0.25,0,100,0,17.5,100,"L","L","L","L",0,0,0,0,11019,10001,11013,0,0,"selfish","selfish","selfish","selfish","selfish","selfish","3",165,265,162.5,75,0,4,"imp-cond-coop","selfish","selfish",1,FALSE,TRUE,FALSE
"64","CondInfo",1,3,20,6,1,0,50,50,0,0,3,50,0,50,100,0.45,0.5,0.05,0.4,0.5,0.1,0.25,0.6,0.15,0.65,0.25,0.1,0,100,0,35.1,100,"L","M","M","L",1,0,1,2,11020,10001,11003,12,5,"inv-cond-coop","other","other","perf-cond-coop","perf-cond-coop","cond-coop","3",90,205,185,67.5,0,0,"selfish","perf-cond-coop","cond-coop",1,FALSE,FALSE,FALSE
"65","CondInfo",1,3,21,2,0,0,0,0,0,0,5,100,50,100,100,0.8,0.1,0.1,1,0,0,0.95,0.05,0,0.9,0,0.1,100,100,300,1.9,400,"L","L","L","L",2,1,2,2,11021,10001,11005,0,17,"selfish","selfish","selfish","imp-cond-coop","imp-cond-coop","cond-coop","3",45,100,57.5,30,0,0,"selfish","imp-cond-coop","cond-coop",0,FALSE,TRUE,FALSE
"66","CondInfo",1,3,22,3,1,0,0,50,50,0,16,50,0,50,50,0.25,0.6,0.15,0.5,0.4,0.1,0.15,0.65,0.2,0.1,0.75,0.15,0,100,0,36.3,100,"L","L","M","M",1,0,1,1,11022,10001,11016,4,4,"imp-cond-coop","imp-cond-coop","cond-coop","imp-cond-coop","imp-cond-coop","cond-coop","3",135,190,207.5,157.5,50,5,"perf-cond-coop","imp-cond-coop","cond-coop",0,TRUE,FALSE,FALSE
"67","CondInfo",1,4,1,3,1,0,0,0,0,0,14,50,0,0,0,1,0,0,1,0,0,1,0,0,1,0,0,0,100,0,40,100,"L","L","L","L",1,0,0,0,11001,10001,11014,0,0,"selfish","selfish","selfish","selfish","selfish","selfish","4",0,100,50,0,0,0,"selfish","selfish","selfish",1,FALSE,TRUE,FALSE
"68","CondInfo",1,4,2,2,0,0,0,0,0,0,9,50,0,0,0,0.8,0.2,0,1,0,0,0.3,0.7,0,0.2,0.3,0.5,50,100,150,20.4,250,"L","L","L","L",1,0,0,0,11002,10001,11009,0,0,"selfish","selfish","selfish","selfish","selfish","selfish","4",30,100,155,195,50,4,"imp-cond-coop","selfish","selfish",0,FALSE,TRUE,FALSE
"69","CondInfo",1,4,3,5,0,50,0,0,0,0,20,0,0,0,0,0.3,0.5,0.2,0.65,0.35,0,0.25,0.5,0.25,0.1,0.4,0.5,0,100,0,15.6,100,"M","L","L","L",0,0,0,0,11003,10001,11020,0,0,"selfish","selfish","selfish","selfish","selfish","selfish","4",135,152.5,200,210,0,12,"inv-cond-coop","selfish","selfish",0,FALSE,TRUE,FALSE
"70","CondInfo",1,4,4,4,0,100,0,0,0,0,21,0,0,0,0,0,0.55,0.45,1,0,0,0.45,0.55,0,0.2,0.6,0.2,0,100,0,19.2,100,"H","L","L","L",0,0,0,0,11004,10001,11021,0,0,"selfish","selfish","selfish","selfish","selfish","selfish","4",217.5,100,132.5,150,50,17,"imp-cond-coop","selfish","selfish",0,FALSE,TRUE,FALSE
"71","CondInfo",1,4,5,11,0,50,0,0,0,0,15,0,0,0,50,0.25,0.5,0.25,0.5,0.4,0.1,0.25,0.55,0.2,0.15,0.5,0.35,0,100,0,32.1,100,"M","L","L","L",0,0,0,1,11005,10001,11015,0,1,"selfish","selfish","selfish","imp-cond-coop","imp-cond-coop","cond-coop","4",150,190,192.5,180,0,0,"selfish","imp-cond-coop","cond-coop",1,FALSE,TRUE,FALSE
"72","CondInfo",1,4,6,6,1,100,0,50,100,100,22,50,0,50,50,0.05,0.2,0.75,0.5,0.4,0.1,0.35,0.45,0.2,0.05,0.25,0.7,50,0,150,18.9,150,"H","L","M","H",1,0,1,1,11006,10001,11022,5,4,"perf-cond-coop","perf-cond-coop","cond-coop","imp-cond-coop","imp-cond-coop","cond-coop","4",255,190,177.5,247.5,100,5,"perf-cond-coop","imp-cond-coop","cond-coop",0,TRUE,FALSE,FALSE
"73","CondInfo",1,4,7,1,1,100,0,50,100,100,12,0,0,0,0,0.25,0.15,0.6,1,0,0,0,1,0,0,0,1,0,0,0,0,0,"H","L","M","H",0,0,0,0,11007,10001,11012,5,0,"perf-cond-coop","perf-cond-coop","cond-coop","selfish","selfish","selfish","4",202.5,100,200,300,50,1,"imp-cond-coop","selfish","selfish",1,TRUE,FALSE,FALSE
"74","CondInfo",1,4,8,10,1,0,0,0,0,0,17,50,0,0,0,0.45,0.4,0.15,0.9,0.1,0,0.35,0.45,0.2,0.4,0.4,0.2,0,100,0,28.8,100,"L","L","L","L",1,0,0,0,11008,10001,11017,0,0,"selfish","selfish","selfish","selfish","selfish","selfish","4",105,115,177.5,120,0,0,"selfish","selfish","selfish",1,FALSE,TRUE,FALSE
"75","CondInfo",1,4,9,2,1,50,0,0,0,50,2,0,0,0,0,0.5,0.5,0,1,0,0,0.3,0.7,0,0.35,0.45,0.2,0,50,0,26.7,50,"M","L","L","L",0,0,0,0,11009,10001,11002,0,0,"selfish","selfish","selfish","selfish","selfish","selfish","4",75,100,155,127.5,0,5,"perf-cond-coop","selfish","selfish",0,FALSE,TRUE,FALSE
"76","CondInfo",1,4,10,7,0,50,0,50,0,0,18,100,0,50,100,0.8,0.2,0,1,0,0,0.65,0.35,0,0.6,0.35,0.05,100,100,300,12.3,400,"M","L","M","L",2,0,1,2,11010,10001,11018,3,5,"humped","humped","humped","perf-cond-coop","perf-cond-coop","cond-coop","4",30,100,102.5,67.5,0,0,"selfish","perf-cond-coop","cond-coop",0,FALSE,FALSE,TRUE
"77","CondInfo",1,4,11,8,1,50,0,50,100,50,16,50,0,0,50,0.45,0.35,0.2,0.4,0.5,0.1,0.45,0.55,0,0.05,0.3,0.65,0,50,0,21.7,50,"M","L","M","H",1,0,0,1,11011,10001,11016,5,1,"perf-cond-coop","perf-cond-coop","cond-coop","imp-cond-coop","imp-cond-coop","cond-coop","4",112.5,205,132.5,240,0,0,"selfish","imp-cond-coop","cond-coop",1,TRUE,FALSE,FALSE
"78","CondInfo",1,4,12,1,0,0,0,0,0,0,7,100,0,50,100,1,0,0,1,0,0,0.8,0.15,0.05,0.7,0.1,0.2,100,100,300,17.2,400,"L","L","L","L",2,0,1,2,11012,10001,11007,0,5,"selfish","selfish","selfish","perf-cond-coop","perf-cond-coop","cond-coop","4",0,100,87.5,75,0,0,"selfish","perf-cond-coop","cond-coop",1,FALSE,TRUE,FALSE
"79","CondInfo",1,4,13,9,0,0,0,0,0,0,19,0,100,50,0,1,0,0,1,0,0,1,0,0,1,0,0,0,100,0,40,100,"L","L","L","L",0,2,1,0,11013,10001,11019,0,21,"selfish","selfish","selfish","inv-cond-coop","other","other","4",0,100,50,0,0,0,"selfish","other","other",1,FALSE,TRUE,FALSE
"80","CondInfo",1,4,14,3,0,50,0,0,0,0,1,0,0,0,0,0.25,0.5,0.25,1,0,0,0.35,0.4,0.25,0.15,0.5,0.35,0,100,0,18.1,100,"M","L","L","L",0,0,0,0,11014,10001,11001,0,0,"selfish","selfish","selfish","selfish","selfish","selfish","4",150,100,185,180,0,0,"selfish","selfish","selfish",0,FALSE,TRUE,FALSE
"81","CondInfo",1,4,15,11,1,0,0,0,50,0,5,50,0,0,0,0.8,0.2,0,0.85,0.15,0,0.5,0.25,0.25,0.5,0.25,0.25,0,100,0,32.5,100,"L","L","L","M",1,0,0,0,11015,10001,11005,1,0,"imp-cond-coop","imp-cond-coop","cond-coop","selfish","selfish","selfish","4",30,122.5,162.5,112.5,100,5,"perf-cond-coop","selfish","selfish",0,TRUE,FALSE,FALSE
"82","CondInfo",1,4,16,8,0,50,0,0,50,0,11,50,0,50,100,0.3,0.35,0.35,0.55,0.45,0,0.35,0.65,0,0.25,0.4,0.35,50,100,150,27.1,250,"M","L","L","M",1,0,1,2,11016,10001,11011,1,5,"imp-cond-coop","imp-cond-coop","cond-coop","perf-cond-coop","perf-cond-coop","cond-coop","4",157.5,167.5,147.5,165,0,4,"imp-cond-coop","perf-cond-coop","cond-coop",0,TRUE,FALSE,FALSE
"83","CondInfo",1,4,17,10,0,50,0,0,0,0,8,0,0,0,0,0.65,0.2,0.15,1,0,0,0.7,0.3,0,0.65,0,0.35,0,100,0,35.1,100,"M","L","L","L",0,0,0,0,11017,10001,11008,0,0,"selfish","selfish","selfish","selfish","selfish","selfish","4",75,100,95,105,0,3,"humped","selfish","selfish",1,FALSE,TRUE,FALSE
"84","CondInfo",1,4,18,7,1,100,0,50,100,100,10,50,0,50,0,0.25,0.2,0.55,0.75,0.15,0.1,0.15,0.75,0.1,0.1,0.15,0.75,0,0,0,12.1,0,"H","L","M","H",1,0,1,0,11018,10001,11010,5,3,"perf-cond-coop","perf-cond-coop","cond-coop","humped","humped","humped","4",195,152.5,192.5,247.5,100,5,"perf-cond-coop","humped","humped",1,TRUE,FALSE,FALSE
"85","CondInfo",1,4,19,9,1,0,100,50,0,0,13,0,0,0,0,0.3,0.3,0.4,0.4,0.2,0.4,0.25,0.75,0,0.75,0,0.25,0,100,0,37.5,100,"L","H","M","L",0,0,0,0,11019,10001,11013,21,0,"inv-cond-coop","other","other","selfish","selfish","selfish","4",165,250,162.5,75,0,0,"selfish","selfish","selfish",0,FALSE,FALSE,FALSE
"86","CondInfo",1,4,20,5,1,0,0,0,0,0,3,50,0,0,0,0.9,0.05,0.05,0.85,0.15,0,0.8,0.15,0.05,0.8,0.15,0.05,0,100,0,38.7,100,"L","L","L","L",1,0,0,0,11020,10001,11003,0,0,"selfish","selfish","selfish","selfish","selfish","selfish","4",22.5,122.5,87.5,37.5,0,5,"perf-cond-coop","selfish","selfish",1,FALSE,TRUE,FALSE
"87","CondInfo",1,4,21,4,1,0,0,0,0,0,4,100,0,0,0,1,0,0,1,0,0,0.95,0.05,0,1,0,0,0,100,0,40,100,"L","L","L","L",2,0,0,0,11021,10001,11004,0,0,"selfish","selfish","selfish","selfish","selfish","selfish","4",0,100,57.5,0,100,17,"imp-cond-coop","selfish","selfish",0,FALSE,TRUE,FALSE
"88","CondInfo",1,4,22,6,0,50,0,50,50,50,6,100,0,50,100,0.5,0.45,0.05,1,0,0,0.25,0.65,0.1,0.05,0.85,0.1,100,50,300,9.3,350,"M","L","M","M",2,0,1,2,11022,10001,11006,4,5,"imp-cond-coop","imp-cond-coop","cond-coop","perf-cond-coop","perf-cond-coop","cond-coop","4",82.5,100,177.5,157.5,0,4,"imp-cond-coop","perf-cond-coop","cond-coop",1,TRUE,FALSE,FALSE
"89","CondInfo",1,5,1,3,1,0,0,0,0,0,2,0,0,0,0,1,0,0,1,0,0,1,0,0,1,0,0,0,100,0,40,100,"L","L","L","L",0,0,0,0,11001,10001,11002,0,0,"selfish","selfish","selfish","selfish","selfish","selfish","5",0,100,50,0,0,0,"selfish","selfish","selfish",1,FALSE,TRUE,FALSE
"90","CondInfo",1,5,2,3,0,0,0,0,0,0,1,0,0,0,0,0.8,0.2,0,1,0,0,0.3,0.7,0,0.2,0.3,0.5,0,100,0,20.4,100,"L","L","L","L",0,0,0,0,11002,10001,11001,0,0,"selfish","selfish","selfish","selfish","selfish","selfish","5",30,100,155,195,50,0,"selfish","selfish","selfish",0,FALSE,TRUE,FALSE
"91","CondInfo",1,5,3,10,0,50,0,0,0,0,17,0,0,0,0,0.35,0.45,0.2,0.7,0.3,0,0.3,0.4,0.3,0.1,0.5,0.4,0,100,0,15.6,100,"M","L","L","L",0,0,0,0,11003,10001,11017,0,0,"selfish","selfish","selfish","selfish","selfish","selfish","5",127.5,145,200,195,0,0,"selfish","selfish","selfish",0,FALSE,TRUE,FALSE
"92","CondInfo",1,5,4,5,1,100,0,0,0,100,12,0,0,0,0,0,0.5,0.5,1,0,0,0.5,0.5,0,0.4,0.4,0.2,0,0,0,28.8,0,"H","L","L","L",0,0,0,0,11004,10001,11012,0,0,"selfish","selfish","selfish","selfish","selfish","selfish","5",225,100,125,120,0,0,"selfish","selfish","selfish",0,FALSE,TRUE,FALSE
"93","CondInfo",1,5,5,11,1,0,0,50,50,0,10,50,0,50,0,0.75,0.2,0.05,0.9,0.1,0,0.6,0.3,0.1,0.5,0.3,0.2,0,100,0,32.4,100,"L","L","M","M",1,0,1,0,11005,10001,11010,4,3,"imp-cond-coop","imp-cond-coop","cond-coop","humped","humped","humped","5",45,115,125,105,0,1,"imp-cond-coop","humped","humped",0,TRUE,FALSE,FALSE
"94","CondInfo",1,5,6,2,0,100,0,50,100,0,11,0,0,0,0,0.15,0.4,0.45,0.7,0.15,0.15,0.3,0.35,0.35,0.1,0.4,0.5,0,100,0,15.6,100,"H","L","M","H",0,0,0,0,11006,10001,11011,5,0,"perf-cond-coop","perf-cond-coop","cond-coop","selfish","selfish","selfish","5",195,167.5,207.5,210,50,4,"imp-cond-coop","selfish","selfish",1,TRUE,FALSE,FALSE
"95","CondInfo",1,5,7,9,1,100,0,50,100,100,8,50,0,50,50,0.35,0.3,0.35,1,0,0,0,1,0,0,0,1,50,0,150,0,150,"H","L","M","H",1,0,1,1,11007,10001,11008,5,4,"perf-cond-coop","perf-cond-coop","cond-coop","imp-cond-coop","imp-cond-coop","cond-coop","5",150,100,200,300,0,0,"selfish","imp-cond-coop","cond-coop",1,TRUE,FALSE,FALSE
"96","CondInfo",1,5,8,9,0,50,0,50,50,50,7,100,0,50,100,0.4,0.4,0.2,0.5,0.4,0.1,0.45,0.5,0.05,0.5,0.35,0.15,100,50,300,18.1,350,"M","L","M","M",2,0,1,2,11008,10001,11007,4,5,"imp-cond-coop","imp-cond-coop","cond-coop","perf-cond-coop","perf-cond-coop","cond-coop","5",120,190,140,97.5,0,0,"selfish","perf-cond-coop","cond-coop",1,TRUE,FALSE,FALSE
"97","CondInfo",1,5,9,4,1,0,0,0,0,0,22,50,0,50,50,0.35,0.65,0,1,0,0,0.4,0.6,0,0.45,0,0.55,0,100,0,9.9,100,"L","L","L","L",1,0,1,1,11009,10001,11022,0,4,"selfish","selfish","selfish","imp-cond-coop","imp-cond-coop","cond-coop","5",97.5,100,140,165,0,0,"selfish","imp-cond-coop","cond-coop",1,FALSE,TRUE,FALSE
"98","CondInfo",1,5,10,11,0,50,0,50,0,0,5,0,0,50,50,0.65,0.3,0.05,1,0,0,0.6,0.4,0,0.55,0.45,0,0,100,0,27.9,100,"M","L","M","L",0,0,1,1,11010,10001,11005,3,4,"humped","humped","humped","imp-cond-coop","imp-cond-coop","cond-coop","5",60,100,110,67.5,100,5,"perf-cond-coop","imp-cond-coop","cond-coop",0,FALSE,FALSE,TRUE
"99","CondInfo",1,5,11,2,1,0,0,0,0,0,6,100,0,50,100,0.45,0.45,0.1,0.55,0.4,0.05,0.4,0.5,0.1,0.25,0.4,0.35,0,100,0,27.1,100,"L","L","L","L",2,0,1,2,11011,10001,11006,0,5,"selfish","selfish","selfish","perf-cond-coop","perf-cond-coop","cond-coop","5",97.5,175,155,165,0,1,"imp-cond-coop","perf-cond-coop","cond-coop",1,FALSE,TRUE,FALSE
"100","CondInfo",1,5,12,5,0,0,0,0,0,0,4,100,0,0,0,1,0,0,0.75,0.15,0.1,0.5,0.4,0.1,0.25,0.25,0.5,100,100,300,22.5,400,"L","L","L","L",2,0,0,0,11012,10001,11004,0,0,"selfish","selfish","selfish","selfish","selfish","selfish","5",0,152.5,140,187.5,100,5,"perf-cond-coop","selfish","selfish",0,FALSE,TRUE,FALSE
"101","CondInfo",1,5,13,8,0,0,0,0,0,0,18,100,0,50,100,1,0,0,1,0,0,1,0,0,1,0,0,100,100,300,0,400,"L","L","L","L",2,0,1,2,11013,10001,11018,0,5,"selfish","selfish","selfish","perf-cond-coop","perf-cond-coop","cond-coop","5",0,100,50,0,0,21,"inv-cond-coop","perf-cond-coop","cond-coop",0,FALSE,TRUE,FALSE
"102","CondInfo",1,5,14,6,0,50,0,0,0,0,15,0,0,0,50,0.6,0.25,0.15,1,0,0,0.6,0.25,0.15,0.4,0.25,0.35,0,100,0,23.1,100,"M","L","L","L",0,0,0,1,11014,10001,11015,0,1,"selfish","selfish","selfish","imp-cond-coop","imp-cond-coop","cond-coop","5",82.5,100,132.5,142.5,0,0,"selfish","imp-cond-coop","cond-coop",0,FALSE,TRUE,FALSE
"103","CondInfo",1,5,15,6,1,0,0,0,50,0,14,50,0,0,0,0.9,0.1,0,0.95,0.05,0,0.65,0.2,0.15,0.6,0.25,0.15,0,100,0,35.1,100,"L","L","L","M",1,0,0,0,11015,10001,11014,1,0,"imp-cond-coop","imp-cond-coop","cond-coop","selfish","selfish","selfish","5",15,107.5,125,82.5,0,0,"selfish","selfish","selfish",1,TRUE,FALSE,FALSE
"104","CondInfo",1,5,16,7,0,50,0,50,50,50,20,50,0,50,0,0.25,0.5,0.25,0.55,0.4,0.05,0.4,0.6,0,0.1,0.4,0.5,50,50,150,15.6,200,"M","L","M","M",1,0,1,0,11016,10001,11020,4,3,"imp-cond-coop","imp-cond-coop","cond-coop","humped","humped","humped","5",150,175,140,210,50,5,"perf-cond-coop","humped","humped",0,TRUE,FALSE,FALSE
"105","CondInfo",1,5,17,10,1,0,0,0,0,0,3,50,0,0,0,0.75,0.15,0.1,1,0,0,0.75,0.25,0,0.85,0,0.15,0,100,0,39.1,100,"L","L","L","L",1,0,0,0,11017,10001,11003,0,0,"selfish","selfish","selfish","selfish","selfish","selfish","5",52.5,100,87.5,45,0,0,"selfish","selfish","selfish",0,FALSE,TRUE,FALSE
"106","CondInfo",1,5,18,8,1,100,0,50,100,100,13,0,0,0,0,0.25,0.15,0.6,0.75,0.25,0,0.3,0.65,0.05,0.25,0.15,0.6,0,0,0,21.1,0,"H","L","M","H",0,0,0,0,11018,10001,11013,5,0,"perf-cond-coop","perf-cond-coop","cond-coop","selfish","selfish","selfish","5",202.5,137.5,162.5,202.5,0,3,"humped","selfish","selfish",1,TRUE,FALSE,FALSE
"107","CondInfo",1,5,19,1,1,0,0,0,0,0,21,0,0,0,0,0.4,0.2,0.4,0.3,0,0.7,0.25,0.75,0,0.7,0,0.3,0,100,0,36.4,100,"L","L","L","L",0,0,0,0,11019,10001,11021,0,0,"selfish","selfish","selfish","selfish","selfish","selfish","5",150,310,162.5,90,0,0,"selfish","selfish","selfish",1,FALSE,TRUE,FALSE
"108","CondInfo",1,5,20,7,1,50,0,50,0,50,16,50,0,50,50,0.35,0.65,0,0.55,0.25,0.2,0.35,0.45,0.2,0.25,0.65,0.1,50,50,150,36.1,200,"M","L","M","L",1,0,1,1,11020,10001,11016,3,4,"humped","humped","humped","imp-cond-coop","imp-cond-coop","cond-coop","5",97.5,197.5,177.5,127.5,0,0,"selfish","imp-cond-coop","cond-coop",1,FALSE,FALSE,TRUE
"109","CondInfo",1,5,21,1,0,0,0,0,0,0,19,0,0,0,0,0.85,0.05,0.1,1,0,0,1,0,0,1,0,0,0,100,0,40,100,"L","L","L","L",0,0,0,0,11021,10001,11019,0,0,"selfish","selfish","selfish","selfish","selfish","selfish","5",37.5,100,50,0,0,0,"selfish","selfish","selfish",1,FALSE,TRUE,FALSE
"110","CondInfo",1,5,22,4,0,50,0,50,50,0,9,0,0,0,0,0.2,0.55,0.25,1,0,0,0.25,0.6,0.15,0.1,0.7,0.2,0,100,0,13.2,100,"M","L","M","M",0,0,0,0,11022,10001,11009,4,0,"imp-cond-coop","imp-cond-coop","cond-coop","selfish","selfish","selfish","5",157.5,100,185,165,100,5,"perf-cond-coop","selfish","selfish",0,TRUE,FALSE,FALSE
"111","CondInfo",1,6,1,3,0,0,0,0,0,0,21,0,0,0,0,1,0,0,1,0,0,1,0,0,1,0,0,0,100,0,40,100,"L","L","L","L",0,0,0,0,11001,10001,11021,0,0,"selfish","selfish","selfish","selfish","selfish","selfish","6",0,100,50,0,0,0,"selfish","selfish","selfish",1,FALSE,TRUE,FALSE
"112","CondInfo",1,6,2,5,0,0,0,0,0,0,8,50,0,50,50,0.8,0.2,0,1,0,0,0.3,0.7,0,0.2,0.3,0.5,50,100,150,24.4,250,"L","L","L","L",1,0,1,1,11002,10001,11008,0,4,"selfish","selfish","selfish","imp-cond-coop","imp-cond-coop","cond-coop","6",30,100,155,195,0,0,"selfish","imp-cond-coop","cond-coop",0,FALSE,TRUE,FALSE
"113","CondInfo",1,6,3,11,0,50,0,0,0,0,17,0,0,0,0,0.4,0.4,0.2,0.8,0.2,0,0.35,0.35,0.3,0.2,0.5,0.3,0,100,0,20.4,100,"M","L","L","L",0,0,0,0,11003,10001,11017,0,0,"selfish","selfish","selfish","selfish","selfish","selfish","6",120,130,192.5,165,0,0,"selfish","selfish","selfish",0,FALSE,TRUE,FALSE
"114","CondInfo",1,6,4,10,0,0,0,0,0,0,18,100,0,50,100,0.55,0.45,0,1,0,0,0.8,0.2,0,0.6,0.35,0.05,100,100,300,12.3,400,"L","L","L","L",2,0,1,2,11004,10001,11018,0,5,"selfish","selfish","selfish","perf-cond-coop","perf-cond-coop","cond-coop","6",67.5,100,80,67.5,0,0,"selfish","perf-cond-coop","cond-coop",1,FALSE,TRUE,FALSE
"115","CondInfo",1,6,5,7,0,50,0,50,0,50,22,50,0,50,50,0.45,0.5,0.05,0.8,0.15,0.05,0.4,0.5,0.1,0.35,0.6,0.05,50,50,150,34.3,200,"M","L","M","L",1,0,1,1,11005,10001,11022,3,4,"humped","humped","humped","imp-cond-coop","imp-cond-coop","cond-coop","6",90,137.5,155,105,0,3,"humped","imp-cond-coop","cond-coop",1,FALSE,FALSE,TRUE
"116","CondInfo",1,6,6,9,0,100,0,50,100,0,9,0,0,0,0,0.25,0.4,0.35,0.75,0.15,0.1,0.4,0.45,0.15,0.1,0.4,0.5,0,100,0,15.6,100,"H","L","M","H",0,0,0,0,11006,10001,11009,5,0,"perf-cond-coop","perf-cond-coop","cond-coop","selfish","selfish","selfish","6",165,152.5,162.5,210,0,0,"selfish","selfish","selfish",0,TRUE,FALSE,FALSE
"117","CondInfo",1,6,7,2,0,100,0,50,100,100,20,100,0,0,100,0.25,0.55,0.2,1,0,0,0,1,0,0,0.5,0.5,100,0,300,30,300,"H","L","M","H",2,0,0,2,11007,10001,11020,5,2,"perf-cond-coop","perf-cond-coop","cond-coop","imp-cond-coop","imp-cond-coop","cond-coop","6",142.5,100,200,225,50,4,"imp-cond-coop","imp-cond-coop","cond-coop",1,TRUE,FALSE,FALSE
"118","CondInfo",1,6,8,5,1,50,0,50,50,50,2,0,0,0,0,0.4,0.4,0.2,0.65,0.25,0.1,0.4,0.4,0.2,0.3,0.4,0.3,0,50,0,25.2,50,"M","L","M","M",0,0,0,0,11008,10001,11002,4,0,"imp-cond-coop","imp-cond-coop","cond-coop","selfish","selfish","selfish","6",120,167.5,170,150,100,5,"perf-cond-coop","selfish","selfish",0,TRUE,FALSE,FALSE
"119","CondInfo",1,6,9,9,1,0,0,0,0,0,6,100,0,50,100,0.35,0.65,0,1,0,0,0.65,0.35,0,0.5,0.5,0,0,100,0,10,100,"L","L","L","L",2,0,1,2,11009,10001,11006,0,5,"selfish","selfish","selfish","perf-cond-coop","perf-cond-coop","cond-coop","6",97.5,100,102.5,75,0,4,"imp-cond-coop","perf-cond-coop","cond-coop",1,FALSE,TRUE,FALSE
"120","CondInfo",1,6,10,8,0,50,0,50,0,0,12,0,0,0,0,0.7,0.25,0.05,1,0,0,0.6,0.4,0,0.55,0.4,0.05,0,100,0,32.7,100,"M","L","M","L",0,0,0,0,11010,10001,11012,3,0,"humped","humped","humped","selfish","selfish","selfish","6",52.5,100,110,75,0,4,"imp-cond-coop","selfish","selfish",0,FALSE,FALSE,TRUE
"121","CondInfo",1,6,11,6,1,0,0,50,100,0,14,0,0,0,0,0.4,0.35,0.25,0.4,0.45,0.15,0.55,0.45,0,0.2,0.45,0.35,0,100,0,20.7,100,"L","L","M","H",0,0,0,0,11011,10001,11014,5,0,"perf-cond-coop","perf-cond-coop","cond-coop","selfish","selfish","selfish","6",127.5,212.5,117.5,172.5,0,5,"perf-cond-coop","selfish","selfish",1,TRUE,FALSE,FALSE
"122","CondInfo",1,6,12,8,1,0,0,0,0,0,10,50,0,50,0,0.75,0.1,0.15,0.85,0.15,0,0.15,0.65,0.2,0.1,0.15,0.75,0,100,0,12.1,100,"L","L","L","L",1,0,1,0,11012,10001,11010,0,3,"selfish","selfish","selfish","humped","humped","humped","6",60,122.5,207.5,247.5,100,0,"selfish","humped","humped",0,FALSE,TRUE,FALSE
"123","CondInfo",1,6,13,4,1,0,0,0,0,0,15,0,0,0,50,1,0,0,1,0,0,1,0,0,1,0,0,0,100,0,0,100,"L","L","L","L",0,0,0,1,11013,10001,11015,0,1,"selfish","selfish","selfish","imp-cond-coop","imp-cond-coop","cond-coop","6",0,100,50,0,100,5,"perf-cond-coop","imp-cond-coop","cond-coop",0,FALSE,TRUE,FALSE
"124","CondInfo",1,6,14,6,0,0,0,0,0,0,11,0,0,50,100,0.75,0.15,0.1,1,0,0,0.5,0.35,0.15,0.25,0.35,0.4,0,100,0,29.1,100,"L","L","L","L",0,0,1,2,11014,10001,11011,0,5,"selfish","selfish","selfish","perf-cond-coop","perf-cond-coop","cond-coop","6",52.5,100,147.5,172.5,0,1,"imp-cond-coop","perf-cond-coop","cond-coop",0,FALSE,TRUE,FALSE
"125","CondInfo",1,6,15,4,0,0,0,0,50,0,13,0,0,0,0,0.75,0.25,0,0.75,0.15,0.1,0.5,0.5,0,0.3,0.45,0.25,0,100,0,24.9,100,"L","L","L","M",0,0,0,0,11015,10001,11013,1,0,"imp-cond-coop","imp-cond-coop","cond-coop","selfish","selfish","selfish","6",37.5,152.5,125,142.5,0,0,"selfish","selfish","selfish",1,TRUE,FALSE,FALSE
"126","CondInfo",1,6,16,1,1,50,0,50,100,50,19,0,50,50,0,0.55,0.3,0.15,0.9,0.1,0,0.45,0.55,0,0,0.55,0.45,50,50,150,9.9,200,"M","L","M","H",0,1,1,0,11016,10001,11019,5,12,"perf-cond-coop","perf-cond-coop","cond-coop","inv-cond-coop","other","other","6",90,115,132.5,217.5,50,3,"humped","other","other",0,TRUE,FALSE,FALSE
"127","CondInfo",1,6,17,11,1,0,0,0,0,0,3,50,0,0,0,0.8,0.1,0.1,1,0,0,0.75,0.25,0,0.9,0.05,0.05,0,100,0,39.7,100,"L","L","L","L",1,0,0,0,11017,10001,11003,0,0,"selfish","selfish","selfish","selfish","selfish","selfish","6",45,100,87.5,22.5,0,0,"selfish","selfish","selfish",1,FALSE,TRUE,FALSE
"128","CondInfo",1,6,18,10,1,100,0,50,100,100,4,0,0,0,0,0.5,0.15,0.35,0.85,0.1,0.05,0.3,0.6,0.1,0.3,0.2,0.5,0,0,0,24.4,0,"H","L","M","H",0,0,0,0,11018,10001,11004,5,0,"perf-cond-coop","perf-cond-coop","cond-coop","selfish","selfish","selfish","6",127.5,130,170,180,0,0,"selfish","selfish","selfish",1,TRUE,FALSE,FALSE
"129","CondInfo",1,6,19,1,0,0,50,50,0,50,16,50,0,50,100,0.4,0.2,0.4,0.3,0,0.7,0.3,0.7,0,0.7,0,0.3,50,50,150,20.4,200,"L","M","M","L",1,0,1,2,11019,10001,11016,12,5,"inv-cond-coop","other","other","perf-cond-coop","perf-cond-coop","cond-coop","6",150,310,155,90,0,0,"selfish","perf-cond-coop","cond-coop",1,FALSE,FALSE,FALSE
"130","CondInfo",1,6,20,2,1,100,0,0,100,100,7,100,0,50,100,0.35,0.55,0.1,0.3,0.6,0.1,0.4,0.35,0.25,0.6,0.15,0.25,100,0,300,21.1,300,"H","L","L","H",2,0,1,2,11020,10001,11007,2,5,"imp-cond-coop","imp-cond-coop","cond-coop","perf-cond-coop","perf-cond-coop","cond-coop","6",112.5,220,177.5,97.5,50,4,"imp-cond-coop","perf-cond-coop","cond-coop",1,TRUE,FALSE,FALSE
"131","CondInfo",1,6,21,3,1,0,0,0,0,0,1,0,0,0,0,1,0,0,1,0,0,1,0,0,1,0,0,0,100,0,40,100,"L","L","L","L",0,0,0,0,11021,10001,11001,0,0,"selfish","selfish","selfish","selfish","selfish","selfish","6",0,100,50,0,0,0,"selfish","selfish","selfish",0,FALSE,TRUE,FALSE
"132","CondInfo",1,6,22,7,1,50,0,50,50,50,5,50,0,50,0,0.35,0.6,0.05,1,0,0,0.2,0.75,0.05,0.05,0.75,0.2,50,50,150,9.9,200,"M","L","M","M",1,0,1,0,11022,10001,11005,4,3,"imp-cond-coop","imp-cond-coop","cond-coop","humped","humped","humped","6",105,100,177.5,172.5,0,0,"selfish","humped","humped",0,TRUE,FALSE,FALSE
"133","CondInfo",1,7,1,2,1,0,0,0,0,0,6,50,0,50,100,1,0,0,1,0,0,1,0,0,1,0,0,0,100,0,40,100,"L","L","L","L",1,0,1,2,11001,10001,11006,0,5,"selfish","selfish","selfish","perf-cond-coop","perf-cond-coop","cond-coop","7",0,100,50,0,0,0,"selfish","perf-cond-coop","cond-coop",0,FALSE,TRUE,FALSE
"134","CondInfo",1,7,2,9,0,0,0,0,0,0,3,50,0,0,0,0.7,0.3,0,1,0,0,0.3,0.7,0,0.3,0.4,0.3,50,100,150,40,250,"L","L","L","L",1,0,0,0,11002,10001,11003,0,0,"selfish","selfish","selfish","selfish","selfish","selfish","7",45,100,155,150,50,4,"imp-cond-coop","selfish","selfish",0,FALSE,TRUE,FALSE
"135","CondInfo",1,7,3,9,1,50,0,0,0,50,2,0,0,0,0,0.6,0.4,0,0.9,0.1,0,0.35,0.35,0.3,0.15,0.6,0.25,0,50,0,39.6,50,"M","L","L","L",0,0,0,0,11003,10001,11002,0,0,"selfish","selfish","selfish","selfish","selfish","selfish","7",60,115,192.5,165,0,0,"selfish","selfish","selfish",0,FALSE,TRUE,FALSE
"136","CondInfo",1,7,4,4,0,0,0,0,0,0,11,50,0,0,50,0.45,0.45,0.1,1,0,0,0.7,0.3,0,0.45,0.35,0.2,50,100,150,40,250,"L","L","L","L",1,0,0,1,11004,10001,11011,0,1,"selfish","selfish","selfish","imp-cond-coop","imp-cond-coop","cond-coop","7",97.5,100,95,112.5,100,5,"perf-cond-coop","imp-cond-coop","cond-coop",0,FALSE,TRUE,FALSE
"137","CondInfo",1,7,5,5,1,50,0,50,50,50,18,50,0,0,50,0.45,0.45,0.1,0.8,0.1,0.1,0.4,0.55,0.05,0.1,0.55,0.35,0,50,0,38.8,50,"M","L","M","M",1,0,0,1,11005,10001,11018,4,1,"imp-cond-coop","imp-cond-coop","cond-coop","imp-cond-coop","imp-cond-coop","cond-coop","7",97.5,145,147.5,187.5,50,4,"imp-cond-coop","imp-cond-coop","cond-coop",0,TRUE,FALSE,FALSE
"138","CondInfo",1,7,6,2,0,50,0,50,100,0,1,0,0,0,0,0.4,0.3,0.3,0.9,0.05,0.05,0.35,0.4,0.25,0.15,0.4,0.45,0,100,0,39.7,100,"M","L","M","H",0,0,0,0,11006,10001,11001,5,0,"perf-cond-coop","perf-cond-coop","cond-coop","selfish","selfish","selfish","7",135,122.5,185,195,0,0,"selfish","selfish","selfish",0,TRUE,FALSE,FALSE
"139","CondInfo",1,7,7,8,1,100,0,50,100,100,22,50,0,50,50,0.1,0.25,0.65,1,0,0,0,1,0,0,0.5,0.5,50,0,150,40,150,"H","L","M","H",1,0,1,1,11007,10001,11022,5,4,"perf-cond-coop","perf-cond-coop","cond-coop","imp-cond-coop","imp-cond-coop","cond-coop","7",232.5,100,200,225,100,2,"imp-cond-coop","imp-cond-coop","cond-coop",0,TRUE,FALSE,FALSE
"140","CondInfo",1,7,8,10,1,50,0,50,50,50,21,0,0,0,0,0.4,0.4,0.2,0.55,0.35,0.1,0.35,0.45,0.2,0.5,0.35,0.15,0,50,0,33.3,50,"M","L","M","M",0,0,0,0,11008,10001,11021,4,0,"imp-cond-coop","imp-cond-coop","cond-coop","selfish","selfish","selfish","7",120,182.5,177.5,97.5,0,0,"selfish","selfish","selfish",1,TRUE,FALSE,FALSE
"141","CondInfo",1,7,9,3,1,100,0,0,0,100,15,0,0,0,50,0.55,0.45,0,1,0,0,0.5,0.5,0,0.5,0.35,0.15,50,0,150,40,150,"H","L","L","L",0,0,0,1,11009,10001,11015,0,1,"selfish","selfish","selfish","imp-cond-coop","imp-cond-coop","cond-coop","7",67.5,100,125,97.5,0,5,"perf-cond-coop","imp-cond-coop","cond-coop",1,FALSE,TRUE,FALSE
"142","CondInfo",1,7,10,11,1,50,0,50,0,50,20,100,0,0,50,0.75,0.25,0,1,0,0,0.6,0.4,0,0.5,0.45,0.05,0,50,0,40,50,"M","L","M","L",2,0,0,1,11010,10001,11020,3,1,"humped","humped","humped","imp-cond-coop","imp-cond-coop","cond-coop","7",37.5,100,110,82.5,0,0,"selfish","imp-cond-coop","cond-coop",0,FALSE,FALSE,TRUE
"143","CondInfo",1,7,11,4,1,50,0,0,50,50,4,0,0,0,0,0.4,0.35,0.25,0.55,0.35,0.1,0.7,0.3,0,0.15,0.65,0.2,0,50,0,33.3,50,"M","L","L","M",0,0,0,0,11011,10001,11004,1,0,"imp-cond-coop","imp-cond-coop","cond-coop","selfish","selfish","selfish","7",127.5,182.5,95,157.5,0,0,"selfish","selfish","selfish",1,TRUE,FALSE,FALSE
"144","CondInfo",1,7,12,7,1,0,0,0,50,0,13,0,0,0,0,0.7,0.2,0.1,1,0,0,0.7,0.3,0,0.15,0.25,0.6,0,100,0,40,100,"L","L","L","M",0,0,0,0,11012,10001,11013,1,0,"imp-cond-coop","imp-cond-coop","cond-coop","selfish","selfish","selfish","7",60,100,95,217.5,0,3,"humped","selfish","selfish",1,TRUE,FALSE,FALSE
"145","CondInfo",1,7,13,7,0,0,0,0,0,0,12,0,0,0,50,1,0,0,1,0,0,1,0,0,1,0,0,0,100,0,40,100,"L","L","L","L",0,0,0,1,11013,10001,11012,0,1,"selfish","selfish","selfish","imp-cond-coop","imp-cond-coop","cond-coop","7",0,100,50,0,0,1,"imp-cond-coop","imp-cond-coop","cond-coop",1,FALSE,TRUE,FALSE
"146","CondInfo",1,7,14,6,0,0,0,0,0,0,16,50,0,50,50,0.9,0.1,0,1,0,0,0.75,0.15,0.1,0.45,0.25,0.3,50,100,150,40,250,"L","L","L","L",1,0,1,1,11014,10001,11016,0,4,"selfish","selfish","selfish","imp-cond-coop","imp-cond-coop","cond-coop","7",15,100,102.5,127.5,0,5,"perf-cond-coop","imp-cond-coop","cond-coop",0,FALSE,TRUE,FALSE
"147","CondInfo",1,7,15,3,0,0,0,0,50,50,9,100,0,0,0,0.85,0.15,0,0.85,0.15,0,0.5,0.5,0,0.5,0.5,0,100,50,300,39.1,350,"L","L","L","M",2,0,0,0,11015,10001,11009,1,0,"imp-cond-coop","imp-cond-coop","cond-coop","selfish","selfish","selfish","7",22.5,122.5,125,75,0,0,"selfish","selfish","selfish",0,TRUE,FALSE,FALSE
"148","CondInfo",1,7,16,6,1,50,0,50,50,50,14,0,0,0,0,0.35,0.55,0.1,0.7,0.3,0,0.3,0.7,0,0.15,0.45,0.4,0,50,0,36.4,50,"M","L","M","M",0,0,0,0,11016,10001,11014,4,0,"imp-cond-coop","imp-cond-coop","cond-coop","selfish","selfish","selfish","7",112.5,145,155,187.5,50,12,"inv-cond-coop","selfish","selfish",1,TRUE,FALSE,FALSE
"149","CondInfo",1,7,17,1,0,0,0,0,0,0,19,0,0,50,0,0.9,0.05,0.05,1,0,0,0.9,0.1,0,0.9,0,0.1,0,100,0,40,100,"L","L","L","L",0,0,1,0,11017,10001,11019,0,3,"selfish","selfish","selfish","humped","humped","humped","7",22.5,100,65,30,0,0,"selfish","humped","humped",1,FALSE,TRUE,FALSE
"150","CondInfo",1,7,18,5,0,50,0,0,50,0,5,50,0,50,50,0.5,0.2,0.3,0.85,0.1,0.05,0.7,0.25,0.05,0.65,0.1,0.25,50,100,150,39.3,250,"M","L","L","M",1,0,1,1,11018,10001,11005,1,4,"imp-cond-coop","imp-cond-coop","cond-coop","imp-cond-coop","imp-cond-coop","cond-coop","7",120,130,102.5,90,0,0,"selfish","imp-cond-coop","cond-coop",1,TRUE,FALSE,FALSE
"151","CondInfo",1,7,19,1,1,0,0,50,0,0,17,0,0,0,0,0.4,0.2,0.4,0.5,0,0.5,0.3,0.7,0,0.7,0,0.3,0,100,0,30,100,"L","L","M","L",0,0,0,0,11019,10001,11017,3,0,"humped","humped","humped","selfish","selfish","selfish","7",150,250,155,90,50,5,"perf-cond-coop","selfish","selfish",0,FALSE,FALSE,TRUE
"152","CondInfo",1,7,20,11,0,100,0,0,50,0,10,50,0,50,0,0.25,0.4,0.35,0.25,0.45,0.3,0.25,0.4,0.35,0.45,0.25,0.3,50,100,150,22.9,250,"H","L","L","M",1,0,1,0,11020,10001,11010,1,3,"imp-cond-coop","imp-cond-coop","cond-coop","humped","humped","humped","7",165,257.5,215,127.5,100,5,"perf-cond-coop","humped","humped",1,TRUE,FALSE,FALSE
"153","CondInfo",1,7,21,10,0,0,0,0,0,0,8,50,0,50,50,1,0,0,1,0,0,1,0,0,1,0,0,50,100,150,40,250,"L","L","L","L",1,0,1,1,11021,10001,11008,0,4,"selfish","selfish","selfish","imp-cond-coop","imp-cond-coop","cond-coop","7",0,100,50,0,0,0,"selfish","imp-cond-coop","cond-coop",1,FALSE,TRUE,FALSE
"154","CondInfo",1,7,22,8,0,50,0,50,50,50,7,100,0,50,100,0.25,0.7,0.05,1,0,0,0.15,0.75,0.1,0.1,0.7,0.2,100,50,300,40,350,"M","L","M","M",2,0,1,2,11022,10001,11007,4,5,"imp-cond-coop","imp-cond-coop","cond-coop","perf-cond-coop","perf-cond-coop","cond-coop","7",120,100,192.5,165,50,3,"humped","perf-cond-coop","cond-coop",1,TRUE,FALSE,FALSE
"155","CondInfo",1,8,1,9,0,0,0,50,100,100,20,100,0,50,50,1,0,0,1,0,0,0,1,0,0,0,1,100,0,300,40,300,"L","L","M","H",2,0,1,1,11001,10001,11020,5,4,"perf-cond-coop","perf-cond-coop","cond-coop","imp-cond-coop","imp-cond-coop","cond-coop","8",0,100,200,300,0,5,"perf-cond-coop","imp-cond-coop","cond-coop",1,TRUE,FALSE,FALSE
"156","CondInfo",1,8,2,3,0,0,0,0,0,0,12,0,0,0,0,0.7,0.3,0,1,0,0,0.3,0.7,0,0.25,0.5,0.25,0,100,0,20.4,100,"L","L","L","L",0,0,0,0,11002,10001,11012,0,0,"selfish","selfish","selfish","selfish","selfish","selfish","8",45,100,155,150,50,0,"selfish","selfish","selfish",0,FALSE,TRUE,FALSE
"157","CondInfo",1,8,3,5,1,50,0,0,0,50,22,50,0,50,50,0.55,0.45,0,1,0,0,0.75,0.2,0.05,0.35,0.45,0.2,50,50,150,15.9,200,"M","L","L","L",1,0,1,1,11003,10001,11022,0,4,"selfish","selfish","selfish","imp-cond-coop","imp-cond-coop","cond-coop","8",67.5,100,95,127.5,0,0,"selfish","imp-cond-coop","cond-coop",1,FALSE,TRUE,FALSE
"158","CondInfo",1,8,4,4,1,0,0,0,0,0,6,0,0,50,100,0.4,0.45,0.15,1,0,0,0.55,0.45,0,0.4,0.45,0.15,0,100,0,27.9,100,"L","L","L","L",0,0,1,2,11004,10001,11006,0,5,"selfish","selfish","selfish","perf-cond-coop","perf-cond-coop","cond-coop","8",112.5,100,117.5,112.5,50,1,"imp-cond-coop","perf-cond-coop","cond-coop",0,FALSE,TRUE,FALSE
"159","CondInfo",1,8,5,6,1,50,0,50,50,50,8,0,0,0,0,0.7,0.25,0.05,0.75,0.2,0.05,0.35,0.45,0.2,0.25,0.55,0.2,0,50,0,26.7,50,"M","L","M","M",0,0,0,0,11005,10001,11008,4,0,"imp-cond-coop","imp-cond-coop","cond-coop","selfish","selfish","selfish","8",52.5,145,177.5,142.5,0,1,"imp-cond-coop","selfish","selfish",1,TRUE,FALSE,FALSE
"160","CondInfo",1,8,6,4,0,0,0,50,100,0,4,0,0,0,0,0.55,0.3,0.15,0.9,0.05,0.05,0.35,0.45,0.2,0.05,0.4,0.55,0,100,0,26.7,100,"L","L","M","H",0,0,0,0,11006,10001,11004,5,0,"perf-cond-coop","perf-cond-coop","cond-coop","selfish","selfish","selfish","8",90,122.5,177.5,225,0,0,"selfish","selfish","selfish",0,TRUE,FALSE,FALSE
"161","CondInfo",1,8,7,7,0,100,0,50,100,50,18,50,0,0,50,0.05,0.6,0.35,1,0,0,0,1,0,0,1,0,50,50,150,0,200,"H","L","M","H",1,0,0,1,11007,10001,11018,5,1,"perf-cond-coop","perf-cond-coop","cond-coop","imp-cond-coop","imp-cond-coop","cond-coop","8",195,100,200,150,50,4,"imp-cond-coop","imp-cond-coop","cond-coop",1,TRUE,FALSE,FALSE
"162","CondInfo",1,8,8,6,0,0,0,0,0,0,5,50,0,50,50,0.6,0.35,0.05,0.75,0.25,0,0.5,0.35,0.15,0.55,0.35,0.1,50,100,150,26.1,250,"L","L","L","L",1,0,1,1,11008,10001,11005,0,4,"selfish","selfish","selfish","imp-cond-coop","imp-cond-coop","cond-coop","8",67.5,137.5,147.5,82.5,0,0,"selfish","imp-cond-coop","cond-coop",1,FALSE,TRUE,FALSE
"163","CondInfo",1,8,9,1,0,50,0,0,0,0,15,0,0,0,50,0.6,0.4,0,1,0,0,0.6,0.4,0,0.3,0.25,0.45,0,100,0,33.6,100,"M","L","L","L",0,0,0,1,11009,10001,11015,0,1,"selfish","selfish","selfish","imp-cond-coop","imp-cond-coop","cond-coop","8",60,100,110,172.5,50,1,"imp-cond-coop","imp-cond-coop","cond-coop",1,FALSE,TRUE,FALSE
"164","CondInfo",1,8,10,8,1,50,0,50,0,50,19,50,100,50,0,0.75,0.25,0,1,0,0,0.65,0.35,0,0.45,0.5,0.05,50,50,150,23.1,200,"M","L","M","L",1,2,1,0,11010,10001,11019,3,21,"humped","humped","humped","inv-cond-coop","other","other","8",37.5,100,102.5,90,0,1,"imp-cond-coop","other","other",1,FALSE,FALSE,TRUE
"165","CondInfo",1,8,11,2,0,0,0,0,50,0,14,0,0,0,0,0.85,0.15,0,0.8,0.2,0,0.5,0.5,0,0.7,0.3,0,0,100,0,30,100,"L","L","L","M",0,0,0,0,11011,10001,11014,1,0,"imp-cond-coop","imp-cond-coop","cond-coop","selfish","selfish","selfish","8",22.5,130,125,45,0,0,"selfish","selfish","selfish",1,TRUE,FALSE,FALSE
"166","CondInfo",1,8,12,3,1,0,0,0,0,0,2,0,0,0,0,1,0,0,0.8,0.2,0,0.7,0.25,0.05,0.6,0.3,0.1,0,100,0,36.9,100,"L","L","L","L",0,0,0,0,11012,10001,11002,0,0,"selfish","selfish","selfish","selfish","selfish","selfish","8",0,130,102.5,75,0,0,"selfish","selfish","selfish",1,FALSE,TRUE,FALSE
"167","CondInfo",1,8,13,11,0,0,0,0,0,0,16,50,0,50,50,1,0,0,1,0,0,1,0,0,1,0,0,50,100,150,0,250,"L","L","L","L",1,0,1,1,11013,10001,11016,0,4,"selfish","selfish","selfish","imp-cond-coop","imp-cond-coop","cond-coop","8",0,100,50,0,0,1,"imp-cond-coop","imp-cond-coop","cond-coop",0,FALSE,TRUE,FALSE
"168","CondInfo",1,8,14,2,1,0,0,0,0,0,11,0,0,0,50,0.6,0.25,0.15,1,0,0,0.55,0.3,0.15,0.35,0.4,0.25,0,100,0,33.7,100,"L","L","L","L",0,0,0,1,11014,10001,11011,0,1,"selfish","selfish","selfish","imp-cond-coop","imp-cond-coop","cond-coop","8",82.5,100,140,135,50,4,"imp-cond-coop","imp-cond-coop","cond-coop",0,FALSE,TRUE,FALSE
"169","CondInfo",1,8,15,1,1,0,0,0,50,0,9,50,0,0,0,0.9,0.1,0,0.9,0.1,0,0.75,0.25,0,0.55,0.4,0.05,0,100,0,37.5,100,"L","L","L","M",1,0,0,0,11015,10001,11009,1,0,"imp-cond-coop","imp-cond-coop","cond-coop","selfish","selfish","selfish","8",15,115,87.5,75,100,0,"selfish","selfish","selfish",0,TRUE,FALSE,FALSE
"170","CondInfo",1,8,16,11,1,50,0,50,50,50,13,0,0,0,0,0.45,0.55,0,0.9,0.1,0,0.3,0.7,0,0.3,0.45,0.25,0,50,0,20.4,50,"M","L","M","M",0,0,0,0,11016,10001,11013,4,0,"imp-cond-coop","imp-cond-coop","cond-coop","selfish","selfish","selfish","8",82.5,115,155,142.5,0,0,"selfish","selfish","selfish",1,TRUE,FALSE,FALSE
"171","CondInfo",1,8,17,10,0,0,0,0,0,0,21,0,0,0,0,0.9,0.05,0.05,1,0,0,0.9,0.1,0,0.9,0,0.1,0,100,0,39.6,100,"L","L","L","L",0,0,0,0,11017,10001,11021,0,0,"selfish","selfish","selfish","selfish","selfish","selfish","8",22.5,100,65,30,0,3,"humped","selfish","selfish",0,FALSE,TRUE,FALSE
"172","CondInfo",1,8,18,7,1,50,0,0,50,50,7,100,0,50,100,0.25,0.6,0.15,0.85,0.1,0.05,0.3,0.6,0.1,0.5,0.2,0.3,50,50,150,34.8,200,"M","L","L","M",2,0,1,2,11018,10001,11007,1,5,"imp-cond-coop","imp-cond-coop","cond-coop","perf-cond-coop","perf-cond-coop","cond-coop","8",135,130,170,120,50,4,"imp-cond-coop","perf-cond-coop","cond-coop",0,TRUE,FALSE,FALSE
"173","CondInfo",1,8,19,8,0,50,100,50,0,50,10,50,0,50,0,0.5,0.5,0,0.75,0,0.25,0.5,0.5,0,0.75,0,0.25,50,50,150,30,200,"M","H","M","L",1,0,1,0,11019,10001,11010,21,3,"inv-cond-coop","other","other","humped","humped","humped","8",75,175,125,75,0,0,"selfish","humped","humped",1,FALSE,FALSE,FALSE
"174","CondInfo",1,8,20,9,1,100,0,50,50,100,1,0,0,50,100,0.25,0.4,0.35,0.25,0.7,0.05,0.35,0.55,0.1,0.55,0.35,0.1,100,0,300,33.3,300,"H","L","M","M",0,0,1,2,11020,10001,11001,4,5,"imp-cond-coop","imp-cond-coop","cond-coop","perf-cond-coop","perf-cond-coop","cond-coop","8",165,220,162.5,82.5,50,3,"humped","perf-cond-coop","cond-coop",0,TRUE,FALSE,FALSE
"175","CondInfo",1,8,21,10,1,0,0,0,0,0,17,0,0,0,0,1,0,0,1,0,0,1,0,0,1,0,0,0,100,0,40,100,"L","L","L","L",0,0,0,0,11021,10001,11017,0,0,"selfish","selfish","selfish","selfish","selfish","selfish","8",0,100,50,0,50,4,"imp-cond-coop","selfish","selfish",0,FALSE,TRUE,FALSE
"176","CondInfo",1,8,22,5,0,50,0,50,50,50,3,50,0,0,0,0.05,0.65,0.3,1,0,0,0.1,0.8,0.1,0.1,0.7,0.2,50,50,150,10.8,200,"M","L","M","M",1,0,0,0,11022,10001,11003,4,0,"imp-cond-coop","imp-cond-coop","cond-coop","selfish","selfish","selfish","8",187.5,100,200,165,100,5,"perf-cond-coop","selfish","selfish",0,TRUE,FALSE,FALSE
"177","CondInfo",1,9,1,8,0,0,0,50,100,50,20,50,0,50,50,0.5,0.5,0,1,0,0,0,1,0,0,0,1,50,50,150,30,200,"L","L","M","H",1,0,1,1,11001,10001,11020,5,4,"perf-cond-coop","perf-cond-coop","cond-coop","imp-cond-coop","imp-cond-coop","cond-coop","9",75,100,200,300,100,4,"imp-cond-coop","imp-cond-coop","cond-coop",0,TRUE,FALSE,FALSE
"178","CondInfo",1,9,2,10,1,0,0,0,0,0,21,0,0,0,0,0.7,0.3,0,1,0,0,0.3,0.7,0,0.25,0.5,0.25,0,100,0,36.4,100,"L","L","L","L",0,0,0,0,11002,10001,11021,0,0,"selfish","selfish","selfish","selfish","selfish","selfish","9",45,100,155,150,0,0,"selfish","selfish","selfish",0,FALSE,TRUE,FALSE
"179","CondInfo",1,9,3,4,0,50,0,50,100,0,6,0,0,50,100,0.5,0.5,0,1,0,0,0.45,0.5,0.05,0.25,0.5,0.25,0,100,0,30,100,"M","L","M","H",0,0,1,2,11003,10001,11006,5,5,"perf-cond-coop","perf-cond-coop","cond-coop","perf-cond-coop","perf-cond-coop","cond-coop","9",75,100,140,150,50,4,"imp-cond-coop","perf-cond-coop","cond-coop",1,TRUE,FALSE,FALSE
"180","CondInfo",1,9,4,11,1,0,0,0,0,0,22,50,0,50,50,0.4,0.4,0.2,1,0,0,0.55,0.45,0,0.4,0.45,0.15,0,100,0,28.8,100,"L","L","L","L",1,0,1,1,11004,10001,11022,0,4,"selfish","selfish","selfish","imp-cond-coop","imp-cond-coop","cond-coop","9",120,100,117.5,112.5,0,5,"perf-cond-coop","imp-cond-coop","cond-coop",1,FALSE,TRUE,FALSE
"181","CondInfo",1,9,5,1,1,0,0,0,50,0,10,50,0,50,50,0.85,0.15,0,0.9,0.1,0,0.7,0.2,0.1,0.75,0.2,0.05,0,100,0,11.1,100,"L","L","L","M",1,0,1,1,11005,10001,11010,1,4,"imp-cond-coop","imp-cond-coop","cond-coop","imp-cond-coop","imp-cond-coop","cond-coop","9",22.5,115,110,45,0,0,"selfish","imp-cond-coop","cond-coop",1,TRUE,FALSE,FALSE
"182","CondInfo",1,9,6,4,1,0,0,50,100,0,3,50,0,50,100,0.8,0.1,0.1,0.9,0.05,0.05,0.35,0.4,0.25,0.25,0.25,0.5,0,100,0,10.8,100,"L","L","M","H",1,0,1,2,11006,10001,11003,5,5,"perf-cond-coop","perf-cond-coop","cond-coop","perf-cond-coop","perf-cond-coop","cond-coop","9",45,122.5,185,187.5,0,0,"selfish","perf-cond-coop","cond-coop",0,TRUE,FALSE,FALSE
"183","CondInfo",1,9,7,2,1,100,0,50,100,100,15,0,0,0,50,0.2,0.6,0.2,1,0,0,0,1,0,0,0.65,0.35,50,0,150,19.2,150,"H","L","M","H",0,0,0,1,11007,10001,11015,5,1,"perf-cond-coop","perf-cond-coop","cond-coop","imp-cond-coop","imp-cond-coop","cond-coop","9",150,100,200,202.5,50,1,"imp-cond-coop","imp-cond-coop","cond-coop",0,TRUE,FALSE,FALSE
"184","CondInfo",1,9,8,7,0,0,0,0,0,0,18,50,0,0,50,0.5,0.4,0.1,0.65,0.25,0.1,0.6,0.35,0.05,0.65,0.3,0.05,50,100,150,27.6,250,"L","L","L","L",1,0,0,1,11008,10001,11018,0,1,"selfish","selfish","selfish","imp-cond-coop","imp-cond-coop","cond-coop","9",90,167.5,117.5,60,50,4,"imp-cond-coop","imp-cond-coop","cond-coop",0,FALSE,TRUE,FALSE
"185","CondInfo",1,9,9,9,0,50,0,0,0,0,14,0,0,0,0,0.3,0.7,0,1,0,0,0.35,0.65,0,0.25,0.25,0.5,0,100,0,20.4,100,"M","L","L","L",0,0,0,0,11009,10001,11014,0,0,"selfish","selfish","selfish","selfish","selfish","selfish","9",105,100,147.5,187.5,0,1,"imp-cond-coop","selfish","selfish",0,FALSE,TRUE,FALSE
"186","CondInfo",1,9,10,1,0,50,0,50,50,0,5,0,0,0,50,0.65,0.35,0,1,0,0,0.55,0.45,0,0.5,0.45,0.05,0,100,0,35.1,100,"M","L","M","M",0,0,0,1,11010,10001,11005,4,1,"imp-cond-coop","imp-cond-coop","cond-coop","imp-cond-coop","imp-cond-coop","cond-coop","9",52.5,100,117.5,82.5,50,21,"inv-cond-coop","imp-cond-coop","cond-coop",1,TRUE,FALSE,FALSE
"187","CondInfo",1,9,11,3,0,0,0,0,50,0,13,0,0,0,0,0.55,0.35,0.1,0.8,0.2,0,0.5,0.4,0.1,0.6,0.25,0.15,0,100,0,33.3,100,"L","L","L","M",0,0,0,0,11011,10001,11013,1,0,"imp-cond-coop","imp-cond-coop","cond-coop","selfish","selfish","selfish","9",82.5,130,140,82.5,0,0,"selfish","selfish","selfish",0,TRUE,FALSE,FALSE
"188","CondInfo",1,9,12,5,1,0,0,0,0,0,19,50,50,50,0,1,0,0,1,0,0,0.65,0.35,0,0.6,0.15,0.25,50,100,150,0,250,"L","L","L","L",1,1,1,0,11012,10001,11019,0,12,"selfish","selfish","selfish","inv-cond-coop","other","other","9",0,100,102.5,97.5,0,0,"selfish","other","other",1,FALSE,TRUE,FALSE
"189","CondInfo",1,9,13,3,1,0,0,0,0,0,11,0,0,0,50,1,0,0,1,0,0,1,0,0,0.65,0.35,0,0,100,0,40,100,"L","L","L","L",0,0,0,1,11013,10001,11011,0,1,"selfish","selfish","selfish","imp-cond-coop","imp-cond-coop","cond-coop","9",0,100,50,52.5,50,4,"imp-cond-coop","imp-cond-coop","cond-coop",0,FALSE,TRUE,FALSE
"190","CondInfo",1,9,14,9,1,0,0,0,0,0,9,50,0,0,0,0.85,0.1,0.05,1,0,0,0.75,0.25,0,0.35,0.4,0.25,0,100,0,9.3,100,"L","L","L","L",1,0,0,0,11014,10001,11009,0,0,"selfish","selfish","selfish","selfish","selfish","selfish","9",30,100,87.5,135,0,1,"imp-cond-coop","selfish","selfish",1,FALSE,TRUE,FALSE
"191","CondInfo",1,9,15,2,0,0,0,0,50,50,7,100,0,50,100,0.9,0.1,0,0.9,0.1,0,0.85,0.15,0,0.35,0.25,0.4,100,50,300,3.6,350,"L","L","L","M",2,0,1,2,11015,10001,11007,1,5,"imp-cond-coop","imp-cond-coop","cond-coop","perf-cond-coop","perf-cond-coop","cond-coop","9",15,115,72.5,157.5,0,0,"selfish","perf-cond-coop","cond-coop",1,TRUE,FALSE,FALSE
"192","CondInfo",1,9,16,6,0,0,0,0,50,0,17,0,0,0,0,0.6,0.4,0,0.8,0.2,0,0.5,0.5,0,0.15,0.5,0.35,0,100,0,33.6,100,"L","L","L","M",0,0,0,0,11016,10001,11017,1,0,"imp-cond-coop","imp-cond-coop","cond-coop","selfish","selfish","selfish","9",60,130,125,180,0,0,"selfish","selfish","selfish",1,TRUE,FALSE,FALSE
"193","CondInfo",1,9,17,6,1,0,0,0,0,0,16,0,0,0,50,1,0,0,1,0,0,1,0,0,1,0,0,0,100,0,40,100,"L","L","L","L",0,0,0,1,11017,10001,11016,0,1,"selfish","selfish","selfish","imp-cond-coop","imp-cond-coop","cond-coop","9",0,100,50,0,0,0,"selfish","imp-cond-coop","cond-coop",0,FALSE,TRUE,FALSE
"194","CondInfo",1,9,18,7,1,50,0,0,50,50,8,0,0,0,0,0.2,0.65,0.15,0.95,0.05,0,0.25,0.7,0.05,0.3,0.2,0.5,0,50,0,18.3,50,"M","L","L","M",0,0,0,0,11018,10001,11008,1,0,"imp-cond-coop","imp-cond-coop","cond-coop","selfish","selfish","selfish","9",142.5,107.5,170,180,50,5,"perf-cond-coop","selfish","selfish",1,TRUE,FALSE,FALSE
"195","CondInfo",1,9,19,5,0,50,50,50,0,50,12,0,0,0,0,0.75,0.25,0,0.7,0.3,0,0.75,0.25,0,1,0,0,0,50,0,37.5,50,"M","M","M","L",0,0,0,0,11019,10001,11012,12,0,"inv-cond-coop","other","other","selfish","selfish","selfish","9",37.5,145,87.5,0,50,3,"humped","selfish","selfish",0,FALSE,FALSE,FALSE
"196","CondInfo",1,9,20,8,1,50,0,50,50,50,1,0,0,50,100,0.2,0.65,0.15,0.3,0.4,0.3,0.2,0.75,0.05,0.45,0.2,0.35,50,50,150,18.3,200,"M","L","M","M",0,0,1,2,11020,10001,11001,4,5,"imp-cond-coop","imp-cond-coop","cond-coop","perf-cond-coop","perf-cond-coop","cond-coop","9",142.5,250,177.5,135,100,5,"perf-cond-coop","perf-cond-coop","cond-coop",1,TRUE,FALSE,FALSE
"197","CondInfo",1,9,21,10,0,0,0,0,0,0,2,0,0,0,0,1,0,0,1,0,0,1,0,0,1,0,0,0,100,0,40,100,"L","L","L","L",0,0,0,0,11021,10001,11002,0,0,"selfish","selfish","selfish","selfish","selfish","selfish","9",0,100,50,0,0,0,"selfish","selfish","selfish",1,FALSE,TRUE,FALSE
"198","CondInfo",1,9,22,11,0,50,0,50,50,0,4,0,0,0,0,0.05,0.75,0.2,1,0,0,0.05,0.85,0.1,0.05,0.75,0.2,0,100,0,9.9,100,"M","L","M","M",0,0,0,0,11022,10001,11004,4,0,"imp-cond-coop","imp-cond-coop","cond-coop","selfish","selfish","selfish","9",172.5,100,207.5,172.5,50,0,"selfish","selfish","selfish",0,TRUE,FALSE,FALSE
"199","CondInfo",1,10,1,11,1,0,0,50,100,0,6,100,0,50,100,1,0,0,1,0,0,0,1,0,0,0,1,0,100,0,40,100,"L","L","M","H",2,0,1,2,11001,10001,11006,5,5,"perf-cond-coop","perf-cond-coop","cond-coop","perf-cond-coop","perf-cond-coop","cond-coop","10",0,100,200,300,50,4,"imp-cond-coop","perf-cond-coop","cond-coop",0,TRUE,FALSE,FALSE
"200","CondInfo",1,10,2,4,1,0,0,0,0,0,16,0,0,0,50,0.7,0.3,0,1,0,0,0.3,0.7,0,0.25,0.5,0.25,0,100,0,20.4,100,"L","L","L","L",0,0,0,1,11002,10001,11016,0,1,"selfish","selfish","selfish","imp-cond-coop","imp-cond-coop","cond-coop","10",45,100,155,150,0,0,"selfish","imp-cond-coop","cond-coop",1,FALSE,TRUE,FALSE
"201","CondInfo",1,10,3,6,0,50,0,50,50,50,20,50,0,50,0,0.55,0.45,0,1,0,0,0.5,0.5,0,0.2,0.4,0.4,50,50,150,30,200,"M","L","M","M",1,0,1,0,11003,10001,11020,4,3,"imp-cond-coop","imp-cond-coop","cond-coop","humped","humped","humped","10",67.5,100,125,180,0,5,"perf-cond-coop","humped","humped",0,TRUE,FALSE,FALSE
"202","CondInfo",1,10,4,9,0,0,0,0,0,0,12,0,0,0,0,0.4,0.4,0.2,1,0,0,0.65,0.35,0,0.55,0.35,0.1,0,100,0,35.1,100,"L","L","L","L",0,0,0,0,11004,10001,11012,0,0,"selfish","selfish","selfish","selfish","selfish","selfish","10",120,100,102.5,82.5,0,4,"imp-cond-coop","selfish","selfish",1,FALSE,TRUE,FALSE
"203","CondInfo",1,10,5,8,1,0,0,0,50,0,11,0,0,0,50,0.8,0.15,0.05,0.85,0.1,0.05,0.65,0.3,0.05,0.25,0.5,0.25,0,100,0,35.7,100,"L","L","L","M",0,0,0,1,11005,10001,11011,1,1,"imp-cond-coop","imp-cond-coop","cond-coop","imp-cond-coop","imp-cond-coop","cond-coop","10",37.5,130,110,150,0,4,"imp-cond-coop","imp-cond-coop","cond-coop",1,TRUE,FALSE,FALSE
"204","CondInfo",1,10,6,11,0,100,0,50,100,0,1,0,0,50,100,0.7,0.15,0.15,0.9,0.05,0.05,0.2,0.45,0.35,0.1,0.4,0.5,0,100,0,30.7,100,"H","L","M","H",0,0,1,2,11006,10001,11001,5,5,"perf-cond-coop","perf-cond-coop","cond-coop","perf-cond-coop","perf-cond-coop","cond-coop","10",67.5,122.5,222.5,210,0,5,"perf-cond-coop","perf-cond-coop","cond-coop",1,TRUE,FALSE,FALSE
"205","CondInfo",1,10,7,5,0,0,0,0,0,0,22,50,0,50,50,1,0,0,1,0,0,1,0,0,1,0,0,50,100,150,0,250,"L","L","L","L",1,0,1,1,11007,10001,11022,0,4,"selfish","selfish","selfish","imp-cond-coop","imp-cond-coop","cond-coop","10",0,100,50,0,50,1,"imp-cond-coop","imp-cond-coop","cond-coop",1,FALSE,TRUE,FALSE
"206","CondInfo",1,10,8,10,1,0,0,0,0,0,18,0,0,0,0,0.6,0.35,0.05,0.65,0.3,0.05,0.45,0.45,0.1,0.45,0.5,0.05,0,100,0,29.7,100,"L","L","L","L",0,0,0,0,11008,10001,11018,0,0,"selfish","selfish","selfish","selfish","selfish","selfish","10",67.5,160,147.5,90,50,1,"imp-cond-coop","selfish","selfish",0,FALSE,TRUE,FALSE
"207","CondInfo",1,10,9,3,1,50,0,0,0,50,19,0,0,0,0,0.5,0.5,0,1,0,0,0.5,0.5,0,1,0,0,0,50,0,30,50,"M","L","L","L",0,0,0,0,11009,10001,11019,0,0,"selfish","selfish","selfish","selfish","selfish","selfish","10",75,100,125,0,0,0,"selfish","selfish","selfish",0,FALSE,TRUE,FALSE
"208","CondInfo",1,10,10,1,0,50,0,0,0,0,21,0,0,0,0,0.65,0.3,0.05,1,0,0,0.55,0.45,0,0.5,0.45,0.05,0,100,0,31.9,100,"M","L","L","L",0,0,0,0,11010,10001,11021,0,0,"selfish","selfish","selfish","selfish","selfish","selfish","10",60,100,117.5,82.5,0,1,"imp-cond-coop","selfish","selfish",0,FALSE,TRUE,FALSE
"209","CondInfo",1,10,11,8,0,0,0,0,50,0,5,0,0,0,50,0.5,0.2,0.3,0.8,0.2,0,0.65,0.35,0,0.45,0.45,0.1,0,100,0,35.1,100,"L","L","L","M",0,0,0,1,11011,10001,11005,1,1,"imp-cond-coop","imp-cond-coop","cond-coop","imp-cond-coop","imp-cond-coop","cond-coop","10",120,130,102.5,97.5,0,0,"selfish","imp-cond-coop","cond-coop",0,TRUE,FALSE,FALSE
"210","CondInfo",1,10,12,9,1,0,0,0,0,0,4,0,0,0,0,1,0,0,0.75,0.2,0.05,0.65,0.3,0.05,0.6,0.25,0.15,0,100,0,35.7,100,"L","L","L","L",0,0,0,0,11012,10001,11004,0,0,"selfish","selfish","selfish","selfish","selfish","selfish","10",0,145,110,82.5,50,12,"inv-cond-coop","selfish","selfish",1,FALSE,TRUE,FALSE
"211","CondInfo",1,10,13,2,1,0,0,0,0,0,17,0,0,0,0,1,0,0,1,0,0,1,0,0,1,0,0,0,100,0,40,100,"L","L","L","L",0,0,0,0,11013,10001,11017,0,0,"selfish","selfish","selfish","selfish","selfish","selfish","10",0,100,50,0,0,1,"imp-cond-coop","selfish","selfish",1,FALSE,TRUE,FALSE
"212","CondInfo",1,10,14,7,0,0,0,0,0,0,15,0,0,0,50,1,0,0,1,0,0,1,0,0,1,0,0,0,100,0,40,100,"L","L","L","L",0,0,0,1,11014,10001,11015,0,1,"selfish","selfish","selfish","imp-cond-coop","imp-cond-coop","cond-coop","10",0,100,50,0,0,0,"selfish","imp-cond-coop","cond-coop",1,FALSE,TRUE,FALSE
"213","CondInfo",1,10,15,7,1,0,0,0,50,0,14,0,0,0,0,0.95,0.05,0,1,0,0,0.9,0.1,0,0.6,0.4,0,0,100,0,39.6,100,"L","L","L","M",0,0,0,0,11015,10001,11014,1,0,"imp-cond-coop","imp-cond-coop","cond-coop","selfish","selfish","selfish","10",7.5,100,65,60,100,5,"perf-cond-coop","selfish","selfish",0,TRUE,FALSE,FALSE
"214","CondInfo",1,10,16,4,0,0,0,0,50,0,2,0,0,0,0,0.5,0.5,0,0.65,0.35,0,0.55,0.45,0,0,0.55,0.45,0,100,0,31.9,100,"L","L","L","M",0,0,0,0,11016,10001,11002,1,0,"imp-cond-coop","imp-cond-coop","cond-coop","selfish","selfish","selfish","10",75,152.5,117.5,217.5,0,0,"selfish","selfish","selfish",0,TRUE,FALSE,FALSE
"215","CondInfo",1,10,17,2,0,0,0,0,0,0,13,0,0,0,0,1,0,0,1,0,0,0.95,0.05,0,0.95,0.05,0,0,100,0,39.9,100,"L","L","L","L",0,0,0,0,11017,10001,11013,0,0,"selfish","selfish","selfish","selfish","selfish","selfish","10",0,100,57.5,7.5,0,1,"imp-cond-coop","selfish","selfish",1,FALSE,TRUE,FALSE
"216","CondInfo",1,10,18,10,0,0,0,0,0,0,8,0,0,0,0,0.5,0.35,0.15,0.95,0.05,0,0.65,0.3,0.05,0.45,0.15,0.4,0,100,0,35.7,100,"L","L","L","L",0,0,0,0,11018,10001,11008,0,0,"selfish","selfish","selfish","selfish","selfish","selfish","10",97.5,107.5,110,142.5,0,0,"selfish","selfish","selfish",1,FALSE,TRUE,FALSE
"217","CondInfo",1,10,19,3,0,0,0,0,0,0,9,50,0,0,0,1,0,0,1,0,0,1,0,0,1,0,0,50,100,150,40,250,"L","L","L","L",1,0,0,0,11019,10001,11009,0,0,"selfish","selfish","selfish","selfish","selfish","selfish","10",0,100,50,0,0,0,"selfish","selfish","selfish",0,FALSE,TRUE,FALSE
"218","CondInfo",1,10,20,6,1,50,0,50,0,50,3,50,0,50,50,0.35,0.6,0.05,0.35,0.5,0.15,0.15,0.75,0.1,0.25,0.5,0.25,50,50,150,38.1,200,"M","L","M","L",1,0,1,1,11020,10001,11003,3,4,"humped","humped","humped","imp-cond-coop","imp-cond-coop","cond-coop","10",105,220,192.5,150,50,5,"perf-cond-coop","imp-cond-coop","cond-coop",1,FALSE,FALSE,TRUE
"219","CondInfo",1,10,21,1,1,0,0,0,0,0,10,50,0,0,0,1,0,0,1,0,0,1,0,0,1,0,0,0,100,0,40,100,"L","L","L","L",1,0,0,0,11021,10001,11010,0,0,"selfish","selfish","selfish","selfish","selfish","selfish","10",0,100,50,0,0,0,"selfish","selfish","selfish",0,FALSE,TRUE,FALSE
"220","CondInfo",1,10,22,5,1,50,0,50,50,50,7,0,0,0,0,0.2,0.6,0.2,1,0,0,0.1,0.8,0.1,0.05,0.8,0.15,0,50,0,10.8,50,"M","L","M","M",0,0,0,0,11022,10001,11007,4,0,"imp-cond-coop","imp-cond-coop","cond-coop","selfish","selfish","selfish","10",150,100,200,165,0,0,"selfish","selfish","selfish",0,TRUE,FALSE,FALSE
"221","NoCondInfo",2,1,1,1,0,100,0,0,0,0,4,100,0,50,100,0,0,1,1,0,0,1,0,0,0,0,1,100,100,300,40,400,"H","L","L","L",2,0,1,2,22001,20002,22004,0,5,"selfish","selfish","selfish","perf-cond-coop","perf-cond-coop","cond-coop","1",300,100,50,300,NA,NA,NA,NA,NA,NA,FALSE,TRUE,FALSE
"222","NoCondInfo",2,1,2,9,1,50,0,0,50,50,10,100,0,50,100,0.25,0.5,0.25,0.4,0.4,0.2,0.35,0.5,0.15,0.25,0.5,0.25,50,50,150,28.8,200,"M","L","L","M",2,0,1,2,22002,20002,22010,1,5,"imp-cond-coop","imp-cond-coop","cond-coop","perf-cond-coop","perf-cond-coop","cond-coop","1",150,220,170,150,NA,NA,NA,NA,NA,NA,TRUE,FALSE,FALSE
"223","NoCondInfo",2,1,3,11,1,0,0,0,0,0,18,0,0,0,50,0.55,0.45,0,0.9,0.1,0,0.45,0.55,0,0.4,0.3,0.3,0,100,0,39.6,100,"L","L","L","L",0,0,0,1,22003,20002,22018,0,1,"selfish","selfish","selfish","imp-cond-coop","imp-cond-coop","cond-coop","1",67.5,115,132.5,135,NA,NA,NA,NA,NA,NA,FALSE,TRUE,FALSE
"224","NoCondInfo",2,1,4,1,1,100,0,50,100,100,1,100,0,0,0,0,0.4,0.6,0.9,0.1,0,0.1,0.8,0.1,0.1,0.2,0.7,0,0,0,39.6,0,"H","L","M","H",2,0,0,0,22004,20002,22001,5,0,"perf-cond-coop","perf-cond-coop","cond-coop","selfish","selfish","selfish","1",240,115,200,240,NA,NA,NA,NA,NA,NA,TRUE,FALSE,FALSE
"225","NoCondInfo",2,1,5,2,1,50,0,50,100,50,11,50,0,0,50,0.3,0.6,0.1,0.6,0.3,0.1,0.1,0.75,0.15,0.05,0.5,0.45,0,50,0,34.8,50,"M","L","M","H",1,0,0,1,22005,20002,22011,5,1,"perf-cond-coop","perf-cond-coop","cond-coop","imp-cond-coop","imp-cond-coop","cond-coop","1",120,175,207.5,210,NA,NA,NA,NA,NA,NA,TRUE,FALSE,FALSE
"226","NoCondInfo",2,1,6,5,0,100,0,50,100,50,21,50,0,50,100,0,0.5,0.5,1,0,0,0,1,0,0,0,1,50,50,150,40,200,"H","L","M","H",1,0,1,2,22006,20002,22021,5,5,"perf-cond-coop","perf-cond-coop","cond-coop","perf-cond-coop","perf-cond-coop","cond-coop","1",225,100,200,300,NA,NA,NA,NA,NA,NA,TRUE,FALSE,FALSE
"227","NoCondInfo",2,1,7,10,0,0,0,0,50,0,9,0,0,50,100,0.9,0.1,0,0.95,0.05,0,0.6,0.3,0.1,0.25,0.55,0.2,0,100,0,39.9,100,"L","L","L","M",0,0,1,2,22007,20002,22009,1,5,"imp-cond-coop","imp-cond-coop","cond-coop","perf-cond-coop","perf-cond-coop","cond-coop","1",15,107.5,125,142.5,NA,NA,NA,NA,NA,NA,TRUE,FALSE,FALSE
"228","NoCondInfo",2,1,8,7,1,100,0,50,100,100,19,0,0,50,0,0,0,1,1,0,0,0,1,0,0,0,1,0,0,0,40,0,"H","L","M","H",0,0,1,0,22008,20002,22019,5,3,"perf-cond-coop","perf-cond-coop","cond-coop","humped","humped","humped","1",300,100,200,300,NA,NA,NA,NA,NA,NA,TRUE,FALSE,FALSE
"229","NoCondInfo",2,1,9,10,1,0,0,50,100,0,7,0,0,0,50,0.35,0.4,0.25,0.35,0.45,0.2,0.25,0.5,0.25,0.05,0.05,0.9,0,100,0,26.7,100,"L","L","M","H",0,0,0,1,22009,20002,22007,5,1,"perf-cond-coop","perf-cond-coop","cond-coop","imp-cond-coop","imp-cond-coop","cond-coop","1",135,227.5,200,277.5,NA,NA,NA,NA,NA,NA,TRUE,FALSE,FALSE
"230","NoCondInfo",2,1,10,9,0,100,0,50,100,50,2,50,0,0,50,0.4,0.5,0.1,1,0,0,0.4,0.6,0,0.15,0.35,0.5,50,50,150,40,200,"H","L","M","H",1,0,0,1,22010,20002,22002,5,1,"perf-cond-coop","perf-cond-coop","cond-coop","imp-cond-coop","imp-cond-coop","cond-coop","1",105,100,140,202.5,NA,NA,NA,NA,NA,NA,TRUE,FALSE,FALSE
"231","NoCondInfo",2,1,11,2,0,50,0,0,50,0,5,50,0,50,100,0.25,0.5,0.25,0.75,0.25,0,0.3,0.7,0,0,0.25,0.75,50,100,150,37.5,250,"M","L","L","M",1,0,1,2,22011,20002,22005,1,5,"imp-cond-coop","imp-cond-coop","cond-coop","perf-cond-coop","perf-cond-coop","cond-coop","1",150,137.5,155,262.5,NA,NA,NA,NA,NA,NA,TRUE,FALSE,FALSE
"232","NoCondInfo",2,1,12,6,0,100,0,50,100,50,14,50,0,0,0,0.1,0.3,0.6,1,0,0,0.2,0.8,0,0.05,0.2,0.75,50,50,150,40,200,"H","L","M","H",1,0,0,0,22012,20002,22014,5,0,"perf-cond-coop","perf-cond-coop","cond-coop","selfish","selfish","selfish","1",225,100,170,255,NA,NA,NA,NA,NA,NA,TRUE,FALSE,FALSE
"233","NoCondInfo",2,1,13,3,0,50,0,50,100,50,15,50,0,0,0,0.4,0.45,0.15,0.65,0.35,0,0.35,0.3,0.35,0.45,0.4,0.15,50,50,150,35.1,200,"M","L","M","H",1,0,0,0,22013,20002,22015,5,0,"perf-cond-coop","perf-cond-coop","cond-coop","selfish","selfish","selfish","1",112.5,152.5,200,105,NA,NA,NA,NA,NA,NA,TRUE,FALSE,FALSE
"234","NoCondInfo",2,1,14,6,1,50,0,0,0,50,12,100,0,50,100,0.7,0.2,0.1,0.9,0.1,0,0.7,0.2,0.1,0.5,0.3,0.2,50,50,150,39.6,200,"M","L","L","L",2,0,1,2,22014,20002,22012,0,5,"selfish","selfish","selfish","perf-cond-coop","perf-cond-coop","cond-coop","1",60,115,110,105,NA,NA,NA,NA,NA,NA,FALSE,TRUE,FALSE
"235","NoCondInfo",2,1,15,3,1,50,0,0,0,50,13,50,0,50,100,0.15,0.6,0.25,0.65,0.3,0.05,0.55,0.35,0.1,0.65,0.25,0.1,50,50,150,35.7,200,"M","L","L","L",1,0,1,2,22015,20002,22013,0,5,"selfish","selfish","selfish","perf-cond-coop","perf-cond-coop","cond-coop","1",165,160,132.5,67.5,NA,NA,NA,NA,NA,NA,FALSE,TRUE,FALSE
"236","NoCondInfo",2,1,16,4,1,100,0,50,100,100,17,100,0,0,0,0.5,0,0.5,0.5,0.5,0,0.25,0.75,0,0.5,0,0.5,0,0,0,30,0,"H","L","M","H",2,0,0,0,22016,20002,22017,5,0,"perf-cond-coop","perf-cond-coop","cond-coop","selfish","selfish","selfish","1",150,175,162.5,150,NA,NA,NA,NA,NA,NA,TRUE,FALSE,FALSE
"237","NoCondInfo",2,1,17,4,0,100,0,0,0,0,16,100,0,50,100,0.25,0.5,0.25,1,0,0,0.25,0.5,0.25,0,0.35,0.65,100,100,300,40,400,"H","L","L","L",2,0,1,2,22017,20002,22016,0,5,"selfish","selfish","selfish","perf-cond-coop","perf-cond-coop","cond-coop","1",150,100,200,247.5,NA,NA,NA,NA,NA,NA,FALSE,TRUE,FALSE
"238","NoCondInfo",2,1,18,11,0,0,0,0,50,0,3,0,0,0,0,0.7,0.15,0.15,1,0,0,0.5,0.5,0,0.4,0.3,0.3,0,100,0,40,100,"L","L","L","M",0,0,0,0,22018,20002,22003,1,0,"imp-cond-coop","imp-cond-coop","cond-coop","selfish","selfish","selfish","1",67.5,100,125,135,NA,NA,NA,NA,NA,NA,TRUE,FALSE,FALSE
"239","NoCondInfo",2,1,19,7,0,0,0,50,0,0,8,100,0,50,100,0.45,0.55,0,0.55,0.45,0,0.15,0.55,0.3,0.35,0.55,0.1,100,100,300,31.9,400,"L","L","M","L",2,0,1,2,22019,20002,22008,3,5,"humped","humped","humped","perf-cond-coop","perf-cond-coop","cond-coop","1",82.5,167.5,222.5,112.5,NA,NA,NA,NA,NA,NA,FALSE,FALSE,TRUE
"240","NoCondInfo",2,1,20,8,0,0,0,0,50,50,22,100,0,0,0,0.75,0.25,0,1,0,0,0.6,0.4,0,0.25,0.25,0.5,100,50,300,40,350,"L","L","L","M",2,0,0,0,22020,20002,22022,1,0,"imp-cond-coop","imp-cond-coop","cond-coop","selfish","selfish","selfish","1",37.5,100,110,187.5,NA,NA,NA,NA,NA,NA,TRUE,FALSE,FALSE
"241","NoCondInfo",2,1,21,5,1,50,0,50,100,50,6,100,0,50,100,0.25,0.55,0.2,0.7,0.25,0.05,0.2,0.6,0.2,0.1,0.5,0.4,50,50,150,36.9,200,"M","L","M","H",2,0,1,2,22021,20002,22006,5,5,"perf-cond-coop","perf-cond-coop","cond-coop","perf-cond-coop","perf-cond-coop","cond-coop","1",142.5,152.5,200,195,NA,NA,NA,NA,NA,NA,TRUE,FALSE,FALSE
"242","NoCondInfo",2,1,22,8,1,100,0,0,0,100,20,0,0,0,50,0.75,0.15,0.1,1,0,0,0.5,0.5,0,0.8,0.15,0.05,50,0,150,40,150,"H","L","L","L",0,0,0,1,22022,20002,22020,0,1,"selfish","selfish","selfish","imp-cond-coop","imp-cond-coop","cond-coop","1",52.5,100,125,37.5,NA,NA,NA,NA,NA,NA,FALSE,TRUE,FALSE
"243","NoCondInfo",2,2,1,5,0,100,0,0,0,0,6,100,0,50,100,0,0,1,1,0,0,0,1,0,0,0,1,100,100,300,40,400,"H","L","L","L",2,0,1,2,22001,20002,22006,0,5,"selfish","selfish","selfish","perf-cond-coop","perf-cond-coop","cond-coop","2",300,100,200,300,100,5,"perf-cond-coop","perf-cond-coop","cond-coop",0,FALSE,TRUE,FALSE
"244","NoCondInfo",2,2,2,10,1,0,0,0,50,0,10,100,0,50,100,0.2,0.6,0.2,0.1,0.5,0.4,0.35,0.4,0.25,0.5,0.35,0.15,0,100,0,18.1,100,"L","L","L","M",2,0,1,2,22002,20002,22010,1,5,"imp-cond-coop","imp-cond-coop","cond-coop","perf-cond-coop","perf-cond-coop","cond-coop","2",150,295,185,97.5,50,5,"perf-cond-coop","perf-cond-coop","cond-coop",1,TRUE,FALSE,FALSE
"245","NoCondInfo",2,2,3,9,1,0,0,0,0,0,22,0,0,0,0,0.45,0.45,0.1,0.95,0.05,0,0.5,0.45,0.05,0.35,0.65,0,0,100,0,23.1,100,"L","L","L","L",0,0,0,0,22003,20002,22022,0,0,"selfish","selfish","selfish","selfish","selfish","selfish","2",97.5,107.5,132.5,97.5,0,1,"imp-cond-coop","selfish","selfish",1,FALSE,TRUE,FALSE
"246","NoCondInfo",2,2,4,3,0,50,0,0,0,0,21,50,0,0,50,0.3,0.4,0.3,1,0,0,0.5,0.4,0.1,0.6,0.35,0.05,50,100,150,24.3,250,"M","L","L","L",1,0,0,1,22004,20002,22021,0,1,"selfish","selfish","selfish","imp-cond-coop","imp-cond-coop","cond-coop","2",150,100,140,67.5,0,0,"selfish","imp-cond-coop","cond-coop",1,FALSE,TRUE,FALSE
"247","NoCondInfo",2,2,5,7,0,50,0,50,50,0,19,0,0,50,0,0.5,0.35,0.15,0.75,0.2,0.05,0.25,0.7,0.05,0.15,0.55,0.3,0,100,0,17.7,100,"M","L","M","M",0,0,1,0,22005,20002,22019,4,3,"imp-cond-coop","imp-cond-coop","cond-coop","humped","humped","humped","2",97.5,145,170,172.5,0,1,"imp-cond-coop","humped","humped",1,TRUE,FALSE,FALSE
"248","NoCondInfo",2,2,6,5,1,100,0,50,100,100,1,100,0,0,0,0,0.5,0.5,1,0,0,0,1,0,0,0,1,0,0,0,0,0,"H","L","M","H",2,0,0,0,22006,20002,22001,5,0,"perf-cond-coop","perf-cond-coop","cond-coop","selfish","selfish","selfish","2",225,100,200,300,50,5,"perf-cond-coop","selfish","selfish",0,TRUE,FALSE,FALSE
"249","NoCondInfo",2,2,7,2,0,0,0,0,50,0,13,0,0,50,100,0.75,0.25,0,0.75,0.25,0,0.6,0.4,0,0.3,0.55,0.15,0,100,0,17.7,100,"L","L","L","M",0,0,1,2,22007,20002,22013,1,5,"imp-cond-coop","imp-cond-coop","cond-coop","perf-cond-coop","perf-cond-coop","cond-coop","2",37.5,137.5,110,127.5,0,5,"perf-cond-coop","perf-cond-coop","cond-coop",0,TRUE,FALSE,FALSE
"250","NoCondInfo",2,2,8,1,1,100,0,50,100,100,15,100,50,0,0,0,0,1,1,0,0,0,1,0,0,0,1,0,0,0,0,0,"H","L","M","H",2,1,0,0,22008,20002,22015,5,9,"perf-cond-coop","perf-cond-coop","cond-coop","inv-cond-coop","other","other","2",300,100,200,300,0,3,"humped","other","other",1,TRUE,FALSE,FALSE
"251","NoCondInfo",2,2,9,6,1,50,0,50,100,50,11,50,0,50,50,0.55,0.2,0.25,0.5,0.5,0,0.15,0.35,0.5,0,0,1,50,50,150,0,200,"M","L","M","H",1,0,1,1,22009,20002,22011,5,4,"perf-cond-coop","perf-cond-coop","cond-coop","imp-cond-coop","imp-cond-coop","cond-coop","2",105,175,252.5,300,0,1,"imp-cond-coop","imp-cond-coop","cond-coop",1,TRUE,FALSE,FALSE
"252","NoCondInfo",2,2,10,10,0,100,0,50,100,0,2,0,0,0,50,0.25,0.6,0.15,0.75,0.25,0,0.3,0.7,0,0.15,0.35,0.5,0,100,0,26.1,100,"H","L","M","H",0,0,0,1,22010,20002,22002,5,1,"perf-cond-coop","perf-cond-coop","cond-coop","imp-cond-coop","imp-cond-coop","cond-coop","2",135,137.5,155,202.5,50,1,"imp-cond-coop","imp-cond-coop","cond-coop",0,TRUE,FALSE,FALSE
"253","NoCondInfo",2,2,11,6,0,50,0,50,50,50,9,50,0,50,100,0.25,0.6,0.15,1,0,0,0.2,0.45,0.35,0.15,0.45,0.4,50,50,150,28.3,200,"M","L","M","M",1,0,1,2,22011,20002,22009,4,5,"imp-cond-coop","imp-cond-coop","cond-coop","perf-cond-coop","perf-cond-coop","cond-coop","2",135,100,222.5,187.5,50,5,"perf-cond-coop","perf-cond-coop","cond-coop",0,TRUE,FALSE,FALSE
"254","NoCondInfo",2,2,12,11,0,100,0,50,100,0,18,0,0,0,50,0.1,0.3,0.6,1,0,0,0.2,0.8,0,0.05,0.25,0.7,0,100,0,18.9,100,"H","L","M","H",0,0,0,1,22012,20002,22018,5,1,"perf-cond-coop","perf-cond-coop","cond-coop","imp-cond-coop","imp-cond-coop","cond-coop","2",225,100,170,247.5,50,0,"selfish","imp-cond-coop","cond-coop",0,TRUE,FALSE,FALSE
"255","NoCondInfo",2,2,13,2,1,0,0,50,100,0,7,0,0,0,50,0.6,0.4,0,0.5,0.45,0.05,0.55,0.25,0.2,0.4,0.4,0.2,0,100,0,28.8,100,"L","L","M","H",0,0,0,1,22013,20002,22007,5,1,"perf-cond-coop","perf-cond-coop","cond-coop","imp-cond-coop","imp-cond-coop","cond-coop","2",60,182.5,147.5,120,50,0,"selfish","imp-cond-coop","cond-coop",0,TRUE,FALSE,FALSE
"256","NoCondInfo",2,2,14,4,0,50,0,50,100,50,20,50,0,0,50,0.6,0.3,0.1,0.75,0.2,0.05,0.5,0.3,0.2,0.45,0.35,0.2,50,50,150,26.7,200,"M","L","M","H",1,0,0,1,22014,20002,22020,5,1,"perf-cond-coop","perf-cond-coop","cond-coop","imp-cond-coop","imp-cond-coop","cond-coop","2",75,145,155,112.5,50,5,"perf-cond-coop","imp-cond-coop","cond-coop",1,TRUE,FALSE,FALSE
"257","NoCondInfo",2,2,15,1,0,100,50,0,0,0,8,100,0,50,100,0.2,0.45,0.35,0.7,0.2,0.1,0.65,0.1,0.25,0.85,0.1,0.05,100,100,300,7.3,400,"H","M","L","L",2,0,1,2,22015,20002,22008,9,5,"inv-cond-coop","other","other","perf-cond-coop","perf-cond-coop","cond-coop","2",172.5,160,140,30,50,5,"perf-cond-coop","perf-cond-coop","cond-coop",1,FALSE,FALSE,FALSE
"258","NoCondInfo",2,2,16,8,1,0,0,0,0,0,17,100,0,0,0,0.55,0.45,0,0.85,0.15,0,0.6,0.4,0,0.8,0.1,0.1,0,100,0,38.8,100,"L","L","L","L",2,0,0,0,22016,20002,22017,0,0,"selfish","selfish","selfish","selfish","selfish","selfish","2",67.5,122.5,110,45,0,0,"selfish","selfish","selfish",1,FALSE,TRUE,FALSE
"259","NoCondInfo",2,2,17,8,0,100,0,0,0,0,16,0,0,0,0,0,0.5,0.5,1,0,0,0.25,0.75,0,0.1,0.5,0.4,0,100,0,15.6,100,"H","L","L","L",0,0,0,0,22017,20002,22016,0,0,"selfish","selfish","selfish","selfish","selfish","selfish","2",225,100,162.5,195,100,5,"perf-cond-coop","selfish","selfish",0,FALSE,TRUE,FALSE
"260","NoCondInfo",2,2,18,11,1,0,0,0,50,0,12,100,0,50,100,0.7,0.15,0.15,1,0,0,0.6,0.4,0,0.4,0.35,0.25,0,100,0,23.1,100,"L","L","L","M",2,0,1,2,22018,20002,22012,1,5,"imp-cond-coop","imp-cond-coop","cond-coop","perf-cond-coop","perf-cond-coop","cond-coop","2",67.5,100,110,127.5,0,0,"selfish","perf-cond-coop","cond-coop",0,TRUE,FALSE,FALSE
"261","NoCondInfo",2,2,19,7,1,0,0,50,0,0,5,50,0,50,50,0.35,0.4,0.25,0.5,0.4,0.1,0.25,0.7,0.05,0.75,0.25,0,0,100,0,17.5,100,"L","L","M","L",1,0,1,1,22019,20002,22005,3,4,"humped","humped","humped","imp-cond-coop","imp-cond-coop","cond-coop","2",135,190,170,37.5,100,5,"perf-cond-coop","imp-cond-coop","cond-coop",0,FALSE,FALSE,TRUE
"262","NoCondInfo",2,2,20,4,1,50,0,0,50,50,14,50,0,50,100,0.75,0,0.25,1,0,0,0.6,0.4,0,0.25,0.4,0.35,50,50,150,27.1,200,"M","L","L","M",1,0,1,2,22020,20002,22014,1,5,"imp-cond-coop","imp-cond-coop","cond-coop","perf-cond-coop","perf-cond-coop","cond-coop","2",75,100,110,165,100,0,"selfish","perf-cond-coop","cond-coop",0,TRUE,FALSE,FALSE
"263","NoCondInfo",2,2,21,3,1,50,0,0,50,50,4,50,0,0,0,0.2,0.5,0.3,0.75,0.25,0,0.2,0.65,0.15,0.05,0.45,0.5,0,50,0,12.9,50,"M","L","L","M",1,0,0,0,22021,20002,22004,1,0,"imp-cond-coop","imp-cond-coop","cond-coop","selfish","selfish","selfish","2",165,137.5,192.5,217.5,50,5,"perf-cond-coop","selfish","selfish",1,TRUE,FALSE,FALSE
"264","NoCondInfo",2,2,22,9,0,0,0,0,0,0,3,0,0,0,0,0.25,0.5,0.25,1,0,0,0.8,0.2,0,0.8,0.1,0.1,0,100,0,38.8,100,"L","L","L","L",0,0,0,0,22022,20002,22003,0,0,"selfish","selfish","selfish","selfish","selfish","selfish","2",150,100,80,45,50,1,"imp-cond-coop","selfish","selfish",1,FALSE,TRUE,FALSE
"265","NoCondInfo",2,3,1,1,1,100,0,0,0,100,12,100,0,50,100,0,0,1,1,0,0,0,1,0,0,0,1,100,0,300,40,300,"H","L","L","L",2,0,1,2,22001,20002,22012,0,5,"selfish","selfish","selfish","perf-cond-coop","perf-cond-coop","cond-coop","3",300,100,200,300,100,5,"perf-cond-coop","perf-cond-coop","cond-coop",0,FALSE,TRUE,FALSE
"266","NoCondInfo",2,3,2,4,0,50,0,0,50,0,20,50,0,0,0,0.25,0.5,0.25,0.6,0.2,0.2,0.25,0.5,0.25,0.45,0.4,0.15,50,100,150,35.2,250,"M","L","L","M",1,0,0,0,22002,20002,22020,1,0,"imp-cond-coop","imp-cond-coop","cond-coop","selfish","selfish","selfish","3",150,190,200,105,0,5,"perf-cond-coop","selfish","selfish",1,TRUE,FALSE,FALSE
"267","NoCondInfo",2,3,3,5,0,0,0,0,0,0,16,0,0,0,0,0.7,0.3,0,1,0,0,0.55,0.45,0,0.35,0.45,0.2,0,100,0,40,100,"L","L","L","L",0,0,0,0,22003,20002,22016,0,0,"selfish","selfish","selfish","selfish","selfish","selfish","3",45,100,117.5,127.5,0,0,"selfish","selfish","selfish",1,FALSE,TRUE,FALSE
"268","NoCondInfo",2,3,4,3,1,50,0,0,0,50,8,0,0,0,0,0.5,0.2,0.3,1,0,0,0.5,0.5,0,0.4,0.2,0.4,0,50,0,40,50,"M","L","L","L",0,0,0,0,22004,20002,22008,0,0,"selfish","selfish","selfish","selfish","selfish","selfish","3",120,100,125,150,50,1,"imp-cond-coop","selfish","selfish",0,FALSE,TRUE,FALSE
"269","NoCondInfo",2,3,5,6,1,0,0,0,0,0,22,0,0,0,0,0.3,0.6,0.1,0.8,0.2,0,0.2,0.65,0.15,0.1,0.55,0.35,0,100,0,38.4,100,"L","L","L","L",0,0,0,0,22005,20002,22022,0,0,"selfish","selfish","selfish","selfish","selfish","selfish","3",120,130,192.5,187.5,0,3,"humped","selfish","selfish",0,FALSE,TRUE,FALSE
"270","NoCondInfo",2,3,6,10,0,100,0,50,0,50,17,50,0,0,0,0,0.5,0.5,1,0,0,0.25,0.75,0,0.25,0,0.75,50,50,150,40,200,"H","L","M","L",1,0,0,0,22006,20002,22017,3,0,"humped","humped","humped","selfish","selfish","selfish","3",225,100,162.5,225,0,0,"selfish","selfish","selfish",1,FALSE,FALSE,TRUE
"271","NoCondInfo",2,3,7,9,1,0,0,50,100,0,9,100,50,50,0,0.75,0.25,0,0.9,0.1,0,0.3,0.6,0.1,0.2,0.6,0.2,50,100,150,7.6,250,"L","L","M","H",2,1,1,0,22007,20002,22009,5,12,"perf-cond-coop","perf-cond-coop","cond-coop","inv-cond-coop","other","other","3",37.5,115,170,150,0,5,"perf-cond-coop","other","other",0,TRUE,FALSE,FALSE
"272","NoCondInfo",2,3,8,3,0,0,0,0,0,0,4,50,0,0,0,1,0,0,1,0,0,1,0,0,1,0,0,50,100,150,40,250,"L","L","L","L",1,0,0,0,22008,20002,22004,0,0,"selfish","selfish","selfish","selfish","selfish","selfish","3",0,100,50,0,0,9,"inv-cond-coop","selfish","selfish",1,FALSE,TRUE,FALSE
"273","NoCondInfo",2,3,9,9,0,100,50,50,0,50,7,0,0,50,100,0.55,0.25,0.2,0.4,0.3,0.3,0.35,0.3,0.35,0.2,0.4,0.4,0,50,0,29.2,50,"H","M","M","L",0,0,1,2,22009,20002,22007,12,5,"inv-cond-coop","other","other","perf-cond-coop","perf-cond-coop","cond-coop","3",97.5,235,200,180,50,4,"imp-cond-coop","perf-cond-coop","cond-coop",1,FALSE,FALSE,FALSE
"274","NoCondInfo",2,3,10,11,1,100,0,50,100,100,21,50,0,0,0,0.7,0.2,0.1,1,0,0,0.35,0.65,0,0.4,0.2,0.4,0,0,0,40,0,"H","L","M","H",1,0,0,0,22010,20002,22021,5,0,"perf-cond-coop","perf-cond-coop","cond-coop","selfish","selfish","selfish","3",60,100,147.5,150,0,1,"imp-cond-coop","selfish","selfish",0,TRUE,FALSE,FALSE
"275","NoCondInfo",2,3,11,2,0,100,0,50,100,0,15,0,50,0,0,0,0.4,0.6,1,0,0,0,0.7,0.3,0,0.25,0.75,0,100,0,0,100,"H","L","M","H",0,1,0,0,22011,20002,22015,5,9,"perf-cond-coop","perf-cond-coop","cond-coop","inv-cond-coop","other","other","3",240,100,245,262.5,50,5,"perf-cond-coop","other","other",0,TRUE,FALSE,FALSE
"276","NoCondInfo",2,3,12,1,0,100,0,50,100,100,1,100,0,0,0,0.1,0.3,0.6,1,0,0,0.2,0.8,0,0.05,0.2,0.75,100,0,300,40,300,"H","L","M","H",2,0,0,0,22012,20002,22001,5,0,"perf-cond-coop","perf-cond-coop","cond-coop","selfish","selfish","selfish","3",225,100,170,255,0,1,"imp-cond-coop","selfish","selfish",0,TRUE,FALSE,FALSE
"277","NoCondInfo",2,3,13,8,0,50,0,50,100,0,14,0,0,0,0,0.35,0.4,0.25,0.25,0.3,0.45,0.25,0.25,0.5,0.35,0.3,0.35,0,100,0,22.9,100,"M","L","M","H",0,0,0,0,22013,20002,22014,5,0,"perf-cond-coop","perf-cond-coop","cond-coop","selfish","selfish","selfish","3",135,280,237.5,150,0,1,"imp-cond-coop","selfish","selfish",1,TRUE,FALSE,FALSE
"278","NoCondInfo",2,3,14,8,1,0,0,0,0,0,13,50,0,50,100,0.55,0.35,0.1,0.8,0.15,0.05,0.4,0.5,0.1,0.4,0.35,0.25,0,100,0,38.7,100,"L","L","L","L",1,0,1,2,22014,20002,22013,0,5,"selfish","selfish","selfish","perf-cond-coop","perf-cond-coop","cond-coop","3",82.5,137.5,155,127.5,50,1,"imp-cond-coop","perf-cond-coop","cond-coop",0,FALSE,TRUE,FALSE
"279","NoCondInfo",2,3,15,2,1,0,50,0,0,0,11,100,0,50,100,0.15,0.7,0.15,0.7,0.25,0.05,0.55,0.35,0.1,0.6,0.3,0.1,0,100,0,36.9,100,"L","M","L","L",2,0,1,2,22015,20002,22011,9,5,"inv-cond-coop","other","other","perf-cond-coop","perf-cond-coop","cond-coop","3",150,152.5,132.5,75,100,5,"perf-cond-coop","perf-cond-coop","cond-coop",0,FALSE,FALSE,FALSE
"280","NoCondInfo",2,3,16,5,1,0,0,0,0,0,3,0,0,0,0,0.5,0,0.5,1,0,0,0.5,0.5,0,0.5,0,0.5,0,100,0,40,100,"L","L","L","L",0,0,0,0,22016,20002,22003,0,0,"selfish","selfish","selfish","selfish","selfish","selfish","3",150,100,125,150,0,0,"selfish","selfish","selfish",1,FALSE,TRUE,FALSE
"281","NoCondInfo",2,3,17,10,1,50,0,0,0,50,6,100,0,50,0,0.25,0.5,0.25,1,0,0,0.25,0.5,0.25,0.35,0.5,0.15,50,50,150,40,200,"M","L","L","L",2,0,1,0,22017,20002,22006,0,3,"selfish","selfish","selfish","humped","humped","humped","3",150,100,200,120,0,0,"selfish","humped","humped",0,FALSE,TRUE,FALSE
"282","NoCondInfo",2,3,18,7,1,0,0,0,50,0,19,50,0,0,0,0.7,0.15,0.15,0.9,0.05,0.05,0.7,0.25,0.05,0.5,0.25,0.25,0,100,0,39.7,100,"L","L","L","M",1,0,0,0,22018,20002,22019,1,0,"imp-cond-coop","imp-cond-coop","cond-coop","selfish","selfish","selfish","3",67.5,122.5,102.5,112.5,0,5,"perf-cond-coop","selfish","selfish",1,TRUE,FALSE,FALSE
"283","NoCondInfo",2,3,19,7,0,50,0,0,0,0,18,0,0,0,50,0.65,0.3,0.05,0.8,0.2,0,0.25,0.7,0.05,0.6,0.3,0.1,0,100,0,38.4,100,"M","L","L","L",0,0,0,1,22019,20002,22018,0,1,"selfish","selfish","selfish","imp-cond-coop","imp-cond-coop","cond-coop","3",60,130,170,75,0,4,"imp-cond-coop","imp-cond-coop","cond-coop",1,FALSE,TRUE,FALSE
"284","NoCondInfo",2,3,20,4,1,50,0,0,0,50,2,50,0,0,50,0.45,0.4,0.15,1,0,0,0.5,0.5,0,0.25,0.5,0.25,0,50,0,40,50,"M","L","L","L",1,0,0,1,22020,20002,22002,0,1,"selfish","selfish","selfish","imp-cond-coop","imp-cond-coop","cond-coop","3",105,100,125,150,50,5,"perf-cond-coop","imp-cond-coop","cond-coop",1,FALSE,TRUE,FALSE
"285","NoCondInfo",2,3,21,11,0,50,0,0,0,0,10,100,0,50,100,0.45,0.45,0.1,0.95,0.05,0,0.35,0.45,0.2,0.15,0.5,0.35,100,100,300,39.9,400,"M","L","L","L",2,0,1,2,22021,20002,22010,0,5,"selfish","selfish","selfish","perf-cond-coop","perf-cond-coop","cond-coop","3",97.5,107.5,177.5,180,0,0,"selfish","perf-cond-coop","cond-coop",1,FALSE,TRUE,FALSE
"286","NoCondInfo",2,3,22,6,0,0,0,0,0,0,5,0,0,0,0,0.2,0.55,0.25,1,0,0,0.7,0.3,0,0.7,0.15,0.15,0,100,0,40,100,"L","L","L","L",0,0,0,0,22022,20002,22005,0,0,"selfish","selfish","selfish","selfish","selfish","selfish","3",157.5,100,95,67.5,0,0,"selfish","selfish","selfish",0,FALSE,TRUE,FALSE
"287","NoCondInfo",2,4,1,6,1,100,0,0,0,100,18,0,0,0,50,0,0,1,1,0,0,0,1,0,0,0,1,50,0,150,0,150,"H","L","L","L",0,0,0,1,22001,20002,22018,0,1,"selfish","selfish","selfish","imp-cond-coop","imp-cond-coop","cond-coop","4",300,100,200,300,100,5,"perf-cond-coop","imp-cond-coop","cond-coop",1,FALSE,TRUE,FALSE
"288","NoCondInfo",2,4,2,4,0,50,0,0,50,0,6,50,0,50,0,0.25,0.5,0.25,0.6,0.4,0,0.3,0.5,0.2,0.2,0.6,0.2,50,100,150,19.2,250,"M","L","L","M",1,0,1,0,22002,20002,22006,1,3,"imp-cond-coop","imp-cond-coop","cond-coop","humped","humped","humped","4",150,160,185,150,50,0,"selfish","humped","humped",0,TRUE,FALSE,FALSE
"289","NoCondInfo",2,4,3,10,1,0,0,0,0,0,5,50,0,50,50,0.75,0.25,0,1,0,0,0.7,0.3,0,0.7,0.3,0,0,100,0,20.4,100,"L","L","L","L",1,0,1,1,22003,20002,22005,0,4,"selfish","selfish","selfish","imp-cond-coop","imp-cond-coop","cond-coop","4",37.5,100,95,45,0,0,"selfish","imp-cond-coop","cond-coop",0,FALSE,TRUE,FALSE
"290","NoCondInfo",2,4,4,2,0,50,0,0,0,0,19,50,0,0,0,0.5,0.4,0.1,1,0,0,0.8,0.2,0,0.7,0.2,0.1,50,100,150,37.2,250,"M","L","L","L",1,0,0,0,22004,20002,22019,0,0,"selfish","selfish","selfish","selfish","selfish","selfish","4",90,100,80,60,0,0,"selfish","selfish","selfish",1,FALSE,TRUE,FALSE
"291","NoCondInfo",2,4,5,10,0,50,0,50,50,0,3,0,0,0,0,0.4,0.5,0.1,0.85,0.15,0,0.25,0.7,0.05,0.2,0.6,0.2,0,100,0,19.2,100,"M","L","M","M",0,0,0,0,22005,20002,22003,4,0,"imp-cond-coop","imp-cond-coop","cond-coop","selfish","selfish","selfish","4",105,122.5,170,150,0,0,"selfish","selfish","selfish",1,TRUE,FALSE,FALSE
"292","NoCondInfo",2,4,6,4,1,50,0,50,0,50,2,50,0,0,50,0,0.75,0.25,1,0,0,0.25,0.75,0,0.25,0,0.75,0,50,0,7.5,50,"M","L","M","L",1,0,0,1,22006,20002,22002,3,1,"humped","humped","humped","imp-cond-coop","imp-cond-coop","cond-coop","4",187.5,100,162.5,225,50,0,"selfish","imp-cond-coop","cond-coop",0,FALSE,FALSE,TRUE
"293","NoCondInfo",2,4,7,5,1,0,50,50,100,0,21,50,0,0,0,0.6,0.3,0.1,0.5,0.45,0.05,0.25,0.55,0.2,0.15,0.5,0.35,0,100,0,18.1,100,"L","M","M","H",1,0,0,0,22007,20002,22021,14,0,"imp-cond-coop","imp-cond-coop","cond-coop","selfish","selfish","selfish","4",75,182.5,192.5,180,50,12,"inv-cond-coop","selfish","selfish",1,TRUE,FALSE,FALSE
"294","NoCondInfo",2,4,8,3,1,0,0,0,0,0,17,100,0,0,0,1,0,0,1,0,0,1,0,0,1,0,0,0,100,0,40,100,"L","L","L","L",2,0,0,0,22008,20002,22017,0,0,"selfish","selfish","selfish","selfish","selfish","selfish","4",0,100,50,0,50,0,"selfish","selfish","selfish",0,FALSE,TRUE,FALSE
"295","NoCondInfo",2,4,9,7,1,0,0,50,0,0,16,0,0,0,0,0.65,0.2,0.15,0.65,0.05,0.3,0.4,0.3,0.3,0.25,0.3,0.45,0,100,0,22.9,100,"L","L","M","L",0,0,0,0,22009,20002,22016,3,0,"humped","humped","humped","selfish","selfish","selfish","4",75,197.5,185,180,0,5,"perf-cond-coop","selfish","selfish",0,FALSE,FALSE,TRUE
"296","NoCondInfo",2,4,10,9,1,50,0,0,0,50,12,100,0,50,100,0.8,0.2,0,1,0,0,0.75,0.25,0,0.65,0.1,0.25,50,50,150,20.1,200,"M","L","L","L",2,0,1,2,22010,20002,22012,0,5,"selfish","selfish","selfish","perf-cond-coop","perf-cond-coop","cond-coop","4",30,100,87.5,90,0,0,"selfish","perf-cond-coop","cond-coop",1,FALSE,TRUE,FALSE
"297","NoCondInfo",2,4,11,8,1,100,0,50,100,100,20,50,0,0,50,0,0.4,0.6,1,0,0,0,0.85,0.15,0,0.4,0.6,50,0,150,25.6,150,"H","L","M","H",1,0,0,1,22011,20002,22020,5,1,"perf-cond-coop","perf-cond-coop","cond-coop","imp-cond-coop","imp-cond-coop","cond-coop","4",240,100,222.5,240,0,9,"inv-cond-coop","imp-cond-coop","cond-coop",0,TRUE,FALSE,FALSE
"298","NoCondInfo",2,4,12,9,0,100,0,50,100,50,10,50,0,0,0,0.1,0.2,0.7,1,0,0,0.2,0.8,0,0.05,0.2,0.75,50,50,150,9.9,200,"H","L","M","H",1,0,0,0,22012,20002,22010,5,0,"perf-cond-coop","perf-cond-coop","cond-coop","selfish","selfish","selfish","4",240,100,170,255,100,0,"selfish","selfish","selfish",0,TRUE,FALSE,FALSE
"299","NoCondInfo",2,4,13,1,0,100,100,50,0,100,22,0,0,0,0,0.35,0.4,0.25,0.55,0.4,0.05,0.45,0.35,0.2,0.4,0.3,0.3,0,0,0,29.2,0,"H","H","M","L",0,0,0,0,22013,20002,22022,21,0,"inv-cond-coop","other","other","selfish","selfish","selfish","4",135,175,162.5,135,0,0,"selfish","selfish","selfish",0,FALSE,FALSE,FALSE
"300","NoCondInfo",2,4,14,11,0,50,0,50,100,50,15,50,0,0,0,0.5,0.4,0.1,0.85,0.1,0.05,0.35,0.45,0.2,0.3,0.45,0.25,50,50,150,24.9,200,"M","L","M","H",1,0,0,0,22014,20002,22015,5,0,"perf-cond-coop","perf-cond-coop","cond-coop","selfish","selfish","selfish","4",90,130,177.5,142.5,0,5,"perf-cond-coop","selfish","selfish",1,TRUE,FALSE,FALSE
"301","NoCondInfo",2,4,15,11,1,50,0,0,0,50,14,50,0,50,100,0.15,0.6,0.25,0.75,0.2,0.05,0.6,0.35,0.05,0.65,0.25,0.1,50,50,150,14.1,200,"M","L","L","L",1,0,1,2,22015,20002,22014,0,5,"selfish","selfish","selfish","perf-cond-coop","perf-cond-coop","cond-coop","4",165,145,117.5,67.5,0,5,"perf-cond-coop","perf-cond-coop","cond-coop",1,FALSE,TRUE,FALSE
"302","NoCondInfo",2,4,16,7,0,0,0,0,0,0,9,0,0,50,0,1,0,0,1,0,0,0.45,0.55,0,0.9,0,0.1,0,100,0,39.6,100,"L","L","L","L",0,0,1,0,22016,20002,22009,0,3,"selfish","selfish","selfish","humped","humped","humped","4",0,100,132.5,30,0,0,"selfish","humped","humped",1,FALSE,TRUE,FALSE
"303","NoCondInfo",2,4,17,3,0,100,0,0,0,0,8,0,0,0,0,0,0.7,0.3,1,0,0,0.15,0.5,0.35,0.05,0.6,0.35,0,100,0,12.3,100,"H","L","L","L",0,0,0,0,22017,20002,22008,0,0,"selfish","selfish","selfish","selfish","selfish","selfish","4",195,100,230,195,50,3,"humped","selfish","selfish",1,FALSE,TRUE,FALSE
"304","NoCondInfo",2,4,18,6,0,0,0,0,50,50,1,100,0,0,0,0.8,0.1,0.1,0.9,0.05,0.05,0.6,0.2,0.2,0.55,0.2,0.25,100,50,300,33.9,350,"L","L","L","M",2,0,0,0,22018,20002,22001,1,0,"imp-cond-coop","imp-cond-coop","cond-coop","selfish","selfish","selfish","4",45,122.5,140,105,0,0,"selfish","selfish","selfish",1,TRUE,FALSE,FALSE
"305","NoCondInfo",2,4,19,2,1,50,0,0,0,50,4,50,0,0,0,0.6,0.4,0,0.9,0.1,0,0.5,0.5,0,0.6,0.35,0.05,0,50,0,34.3,50,"M","L","L","L",1,0,0,0,22019,20002,22004,0,0,"selfish","selfish","selfish","selfish","selfish","selfish","4",60,115,125,67.5,0,1,"imp-cond-coop","selfish","selfish",0,FALSE,TRUE,FALSE
"306","NoCondInfo",2,4,20,8,0,50,0,0,50,50,11,100,0,50,100,0.65,0.35,0,1,0,0,0.7,0.3,0,0.45,0.4,0.15,100,50,300,18.3,350,"M","L","L","M",2,0,1,2,22020,20002,22011,1,5,"imp-cond-coop","imp-cond-coop","cond-coop","perf-cond-coop","perf-cond-coop","cond-coop","4",52.5,100,95,105,0,1,"imp-cond-coop","perf-cond-coop","cond-coop",1,TRUE,FALSE,FALSE
"307","NoCondInfo",2,4,21,5,0,50,0,0,0,0,7,0,50,50,100,0.35,0.45,0.2,0.7,0.25,0.05,0.4,0.4,0.2,0.1,0.55,0.35,0,100,0,25.3,100,"M","L","L","L",0,1,1,2,22021,20002,22007,0,14,"selfish","selfish","selfish","imp-cond-coop","imp-cond-coop","cond-coop","4",127.5,152.5,170,187.5,100,5,"perf-cond-coop","imp-cond-coop","cond-coop",0,FALSE,TRUE,FALSE
"308","NoCondInfo",2,4,22,1,1,0,0,0,0,0,13,100,100,50,0,1,0,0,1,0,0,0.8,0.2,0,0.8,0.15,0.05,100,100,300,38.7,400,"L","L","L","L",2,2,1,0,22022,20002,22013,0,21,"selfish","selfish","selfish","inv-cond-coop","other","other","4",0,100,80,37.5,0,0,"selfish","other","other",0,FALSE,TRUE,FALSE
"309","NoCondInfo",2,5,1,4,0,100,0,0,0,0,13,0,0,0,0,0,0,1,1,0,0,0,1,0,0,0,1,0,100,0,0,100,"H","L","L","L",0,0,0,0,22001,20002,22013,0,0,"selfish","selfish","selfish","selfish","selfish","selfish","5",300,100,200,300,50,1,"imp-cond-coop","selfish","selfish",1,FALSE,TRUE,FALSE
"310","NoCondInfo",2,5,2,3,1,50,0,0,50,50,10,50,0,0,0,0.15,0.6,0.25,0.5,0.5,0,0.4,0.4,0.2,0.3,0.5,0.2,0,50,0,24.4,50,"M","L","L","M",1,0,0,0,22002,20002,22010,1,0,"imp-cond-coop","imp-cond-coop","cond-coop","selfish","selfish","selfish","5",165,175,170,135,50,3,"humped","selfish","selfish",0,TRUE,FALSE,FALSE
"311","NoCondInfo",2,5,3,9,0,0,0,0,0,0,21,50,0,0,0,1,0,0,1,0,0,1,0,0,1,0,0,50,100,150,40,250,"L","L","L","L",1,0,0,0,22003,20002,22021,0,0,"selfish","selfish","selfish","selfish","selfish","selfish","5",0,100,50,0,0,4,"imp-cond-coop","selfish","selfish",1,FALSE,TRUE,FALSE
"312","NoCondInfo",2,5,4,10,1,50,0,0,0,50,22,100,0,0,100,0.45,0.45,0.1,1,0,0,0.7,0.3,0,0.6,0.1,0.3,0,50,0,22.8,50,"M","L","L","L",2,0,0,2,22004,20002,22022,0,2,"selfish","selfish","selfish","imp-cond-coop","imp-cond-coop","cond-coop","5",97.5,100,95,105,50,0,"selfish","imp-cond-coop","cond-coop",0,FALSE,TRUE,FALSE
"313","NoCondInfo",2,5,5,11,0,50,0,50,50,50,15,50,0,50,0,0.7,0.3,0,0.85,0.15,0,0.35,0.6,0.05,0.15,0.6,0.25,50,50,150,17.1,200,"M","L","M","M",1,0,1,0,22005,20002,22015,4,3,"imp-cond-coop","imp-cond-coop","cond-coop","humped","humped","humped","5",45,122.5,155,165,0,0,"selfish","humped","humped",0,TRUE,FALSE,FALSE
"314","NoCondInfo",2,5,6,6,0,50,0,50,0,0,18,0,0,0,50,0,0.75,0.25,1,0,0,0.25,0.75,0,0.75,0,0.25,0,100,0,7.5,100,"M","L","M","L",0,0,0,1,22006,20002,22018,3,1,"humped","humped","humped","imp-cond-coop","imp-cond-coop","cond-coop","5",187.5,100,162.5,75,0,1,"imp-cond-coop","imp-cond-coop","cond-coop",1,FALSE,FALSE,TRUE
"315","NoCondInfo",2,5,7,2,0,0,0,50,100,0,8,0,0,0,0,0.6,0.35,0.05,0.5,0.5,0,0.2,0.6,0.2,0.25,0.5,0.25,0,100,0,22.5,100,"L","L","M","H",0,0,0,0,22007,20002,22008,5,0,"perf-cond-coop","perf-cond-coop","cond-coop","selfish","selfish","selfish","5",67.5,175,200,150,0,0,"selfish","selfish","selfish",1,TRUE,FALSE,FALSE
"316","NoCondInfo",2,5,8,2,1,0,0,0,0,0,7,0,0,50,100,1,0,0,1,0,0,1,0,0,1,0,0,0,100,0,0,100,"L","L","L","L",0,0,1,2,22008,20002,22007,0,5,"selfish","selfish","selfish","perf-cond-coop","perf-cond-coop","cond-coop","5",0,100,50,0,0,0,"selfish","perf-cond-coop","cond-coop",1,FALSE,TRUE,FALSE
"317","NoCondInfo",2,5,9,5,0,50,0,50,50,0,14,0,0,0,0,0.6,0.3,0.1,1,0,0,0.15,0.7,0.15,0.2,0.4,0.4,0,100,0,20.8,100,"M","L","M","M",0,0,0,0,22009,20002,22014,4,0,"imp-cond-coop","imp-cond-coop","cond-coop","selfish","selfish","selfish","5",75,100,200,180,0,0,"selfish","selfish","selfish",1,TRUE,FALSE,FALSE
